trigger_class,rt,prior,workerid,slide_number_in_experiment,question_type,prior_fact,Answer.time_in_minutes,trigger,short_trigger,content,response,block,american,comments,language,age,trial
MC,14217,NA,0,5,projective,Ballet is a type of dance,7.809833333333334,MC,MC,ballet,0.04,block1,Yes,NA,english,48,1
C,12055,low_prior,0,6,projective,Emma is in first grade,7.809833333333334,reveal,reveal,emma,0.17,block1,Yes,NA,english,48,2
C,11247,low_prior,0,7,projective,Danny is a diabetic,7.809833333333334,demonstrate,demonstrate,danny,0.2,block1,Yes,NA,english,48,3
MC,8521,NA,0,8,projective,Hats are worn on the head,7.809833333333334,MC,MC,hat,0.02,block1,Yes,NA,english,48,4
C,9059,low_prior,0,9,projective,Jayden doesn't have a driver's license,7.809833333333334,be_right,be_right,jayden,0.07,block1,Yes,NA,english,48,5
C,7548,low_prior,0,10,projective,Olivia has two small children,7.809833333333334,establish,establish,olivia,0.23,block1,Yes,NA,english,48,6
C,9598,high_prior,0,11,projective,Grace loves her sister,7.809833333333334,be_annoyed,be_annoyed,grace,0.93,block1,Yes,NA,english,48,7
C,5983,low_prior,0,12,projective,Julian is German,7.809833333333334,suggest,suggest,julian,0.11,block1,Yes,NA,english,48,8
C,9284,high_prior,0,13,projective,Josh is a 5-year old boy,7.809833333333334,acknowledge,acknowledge,josh,0.47,block1,Yes,NA,english,48,9
C,9284,low_prior,0,14,projective,Jon lives 10 miles away from work,7.809833333333334,pretend,pretend,jon,0.11,block1,Yes,NA,english,48,10
C,7846,high_prior,0,15,projective,Sophia is a hipster,7.809833333333334,discover,discover,sophia,0.81,block1,Yes,NA,english,48,11
C,8098,high_prior,0,16,projective,Josie loves France,7.809833333333334,know,know,josie,0.79,block1,Yes,NA,english,48,12
C,9934,high_prior,0,17,projective,Zoe is a math major,7.809833333333334,think,think,zoe,0.69,block1,Yes,NA,english,48,13
C,6558,low_prior,0,18,projective,Jackson is obese,7.809833333333334,admit,admit,jackson,0.51,block1,Yes,NA,english,48,14
MC,5461,NA,0,19,projective,Garages are used to store cars and other things,7.809833333333334,MC,MC,garage,0.05,block1,Yes,NA,english,48,15
C,6825,high_prior,0,20,projective,Tony really likes to party with his friends,7.809833333333334,say,say,tony,0.08,block1,Yes,NA,english,48,16
C,8309,high_prior,0,21,projective,Emily has been saving for a year,7.809833333333334,hear,hear,emily,0.38,block1,Yes,NA,english,48,17
C,9446,low_prior,0,22,projective,Charley lives in Korea,7.809833333333334,announce,announce,charley,0.21,block1,Yes,NA,english,48,18
MC,7750,NA,0,23,projective,Many children like ice cream,7.809833333333334,MC,MC,kids,0.09,block1,Yes,NA,english,48,19
MC,5786,NA,0,24,projective,Pizza is sold at the pizzeria,7.809833333333334,MC,MC,pizza,0.02,block1,Yes,NA,english,48,20
C,4672,low_prior,0,25,projective,Mary is a middle school student,7.809833333333334,prove,prove,mary,0.12,block1,Yes,NA,english,48,21
C,12621,low_prior,0,26,projective,Owen lives in New Orleans,7.809833333333334,see,see,owen,0.49,block1,Yes,NA,english,48,22
C,5123,high_prior,0,27,projective,Mia is a college student,7.809833333333334,confirm,confirm,mia,0.31,block1,Yes,NA,english,48,23
C,6522,high_prior,0,28,projective,Isabella is from Argentina,7.809833333333334,inform,inform,isabella,0.29,block1,Yes,NA,english,48,24
MC,4559,NA,0,29,projective,Muffins are sold at the bakery,7.809833333333334,MC,MC,muffins,0.03,block1,Yes,NA,english,48,25
C,11884,high_prior,0,30,projective,Frank has always wanted a pet,7.809833333333334,confess,confess,frank,0.23,block1,Yes,NA,english,48,26
C,7632,high_prior,0,32,ai,Grace loves her sister,7.809833333333334,be_annoyed,be_annoyed,grace,0.98,block2,Yes,NA,english,48,27
MC,3837,NA,0,33,ai,Muffins are sold at the bakery,7.809833333333334,MC,MC,muffins,0.030000000000000027,block2,Yes,NA,english,48,28
C,5908,high_prior,0,34,ai,Mia is a college student,7.809833333333334,confirm,confirm,mia,0.52,block2,Yes,NA,english,48,29
C,5435,low_prior,0,35,ai,Jackson is obese,7.809833333333334,admit,admit,jackson,0.56,block2,Yes,NA,english,48,30
MC,4748,NA,0,36,ai,Ballet is a type of dance,7.809833333333334,MC,MC,ballet,0.040000000000000036,block2,Yes,NA,english,48,31
C,5074,high_prior,0,37,ai,Frank has always wanted a pet,7.809833333333334,confess,confess,frank,0.51,block2,Yes,NA,english,48,32
C,4135,low_prior,0,38,ai,Julian is German,7.809833333333334,suggest,suggest,julian,0.5,block2,Yes,NA,english,48,33
C,8023,low_prior,0,39,ai,Jayden doesn't have a driver's license,7.809833333333334,be_right,be_right,jayden,0.24,block2,Yes,NA,english,48,34
C,5537,low_prior,0,40,ai,Charley lives in Korea,7.809833333333334,announce,announce,charley,0.5700000000000001,block2,Yes,NA,english,48,35
C,5073,low_prior,0,41,ai,Mary is a middle school student,7.809833333333334,prove,prove,mary,0.52,block2,Yes,NA,english,48,36
C,7222,low_prior,0,42,ai,Jon lives 10 miles away from work,7.809833333333334,pretend,pretend,jon,0.79,block2,Yes,NA,english,48,37
MC,13408,NA,0,43,ai,Many children like ice cream,7.809833333333334,MC,MC,kids,0.020000000000000018,block2,Yes,NA,english,48,38
C,3862,high_prior,0,44,ai,Sophia is a hipster,7.809833333333334,discover,discover,sophia,0.54,block2,Yes,NA,english,48,39
MC,12046,NA,0,45,ai,Hats are worn on the head,7.809833333333334,MC,MC,hat,0.040000000000000036,block2,Yes,NA,english,48,40
C,6998,high_prior,0,46,ai,Isabella is from Argentina,7.809833333333334,inform,inform,isabella,0.54,block2,Yes,NA,english,48,41
C,4935,low_prior,0,47,ai,Emma is in first grade,7.809833333333334,reveal,reveal,emma,0.55,block2,Yes,NA,english,48,42
MC,6960,NA,0,48,ai,Pizza is sold at the pizzeria,7.809833333333334,MC,MC,pizza,0.010000000000000009,block2,Yes,NA,english,48,43
C,3573,high_prior,0,49,ai,Zoe is a math major,7.809833333333334,think,think,zoe,0.5700000000000001,block2,Yes,NA,english,48,44
C,3600,high_prior,0,50,ai,Tony really likes to party with his friends,7.809833333333334,say,say,tony,0.56,block2,Yes,NA,english,48,45
C,4822,low_prior,0,51,ai,Olivia has two small children,7.809833333333334,establish,establish,olivia,0.56,block2,Yes,NA,english,48,46
C,6385,high_prior,0,52,ai,Josh is a 5-year old boy,7.809833333333334,acknowledge,acknowledge,josh,0.52,block2,Yes,NA,english,48,47
C,5249,high_prior,0,53,ai,Emily has been saving for a year,7.809833333333334,hear,hear,emily,0.51,block2,Yes,NA,english,48,48
C,10020,low_prior,0,54,ai,Danny is a diabetic,7.809833333333334,demonstrate,demonstrate,danny,0.52,block2,Yes,NA,english,48,49
C,4787,high_prior,0,55,ai,Josie loves France,7.809833333333334,know,know,josie,0.5,block2,Yes,NA,english,48,50
MC,7535,NA,0,56,ai,Garages are used to store cars and other things,7.809833333333334,MC,MC,garage,0.040000000000000036,block2,Yes,NA,english,48,51
C,3224,low_prior,0,57,ai,Owen lives in New Orleans,7.809833333333334,see,see,owen,0.55,block2,Yes,NA,english,48,52
C,1605,low_prior,1,5,projective,Sophia is a high end fashion model,1.5171833333333333,confess,confess,sophia,0.65,block1,Yes,i like this study,english,25,1
C,975,high_prior,1,6,projective,Josie loves France,1.5171833333333333,prove,prove,josie,0.62,block1,Yes,i like this study,english,25,2
C,848,low_prior,1,7,projective,Jayden doesn't have a driver's license,1.5171833333333333,confirm,confirm,jayden,0.67,block1,Yes,i like this study,english,25,3
MC,1608,NA,1,8,projective,Ballet is a type of dance,1.5171833333333333,MC,MC,ballet,0.5,block1,Yes,i like this study,english,25,4
C,1327,low_prior,1,9,projective,Julian is German,1.5171833333333333,establish,establish,julian,0.68,block1,Yes,i like this study,english,25,5
MC,831,NA,1,10,projective,Garages are used to store cars and other things,1.5171833333333333,MC,MC,garage,0.7,block1,Yes,i like this study,english,25,6
C,1208,high_prior,1,11,projective,Frank has always wanted a pet,1.5171833333333333,think,think,frank,0.63,block1,Yes,i like this study,english,25,7
C,944,high_prior,1,12,projective,Jackson is training for a marathon,1.5171833333333333,reveal,reveal,jackson,0.68,block1,Yes,i like this study,english,25,8
MC,871,NA,1,13,projective,Hats are worn on the head,1.5171833333333333,MC,MC,hat,0.54,block1,Yes,i like this study,english,25,9
MC,1112,NA,1,14,projective,Pizza is sold at the pizzeria,1.5171833333333333,MC,MC,pizza,0.39,block1,Yes,i like this study,english,25,10
C,775,low_prior,1,15,projective,Charley lives in Korea,1.5171833333333333,pretend,pretend,charley,0.54,block1,Yes,i like this study,english,25,11
MC,735,NA,1,16,projective,Muffins are sold at the bakery,1.5171833333333333,MC,MC,muffins,0.63,block1,Yes,i like this study,english,25,12
MC,1855,NA,1,17,projective,Many children like ice cream,1.5171833333333333,MC,MC,kids,0.57,block1,Yes,i like this study,english,25,13
C,847,low_prior,1,18,projective,Grace hates her sister,1.5171833333333333,know,know,grace,0.6,block1,Yes,i like this study,english,25,14
C,1912,low_prior,1,19,projective,Tony has been sober for 20 years,1.5171833333333333,hear,hear,tony,0.7,block1,Yes,i like this study,english,25,15
C,761,low_prior,1,20,projective,Zoe is 5 years old,1.5171833333333333,discover,discover,zoe,0.62,block1,Yes,i like this study,english,25,16
C,1455,high_prior,1,21,projective,Mia is a college student,1.5171833333333333,be_right,be_right,mia,0.63,block1,Yes,i like this study,english,25,17
C,1199,high_prior,1,22,projective,Isabella is from Argentina,1.5171833333333333,demonstrate,demonstrate,isabella,0.5,block1,Yes,i like this study,english,25,18
C,800,high_prior,1,23,projective,Mary is taking a prenatal yoga class,1.5171833333333333,acknowledge,acknowledge,mary,0.64,block1,Yes,i like this study,english,25,19
C,1191,low_prior,1,24,projective,Emma is in first grade,1.5171833333333333,announce,announce,emma,0.55,block1,Yes,i like this study,english,25,20
C,810,high_prior,1,25,projective,Josh is a 5-year old boy,1.5171833333333333,see,see,josh,0.68,block1,Yes,i like this study,english,25,21
C,1566,high_prior,1,26,projective,Jon lives 2 blocks away from work,1.5171833333333333,inform,inform,jon,0.6,block1,Yes,i like this study,english,25,22
C,751,low_prior,1,27,projective,Owen lives in New Orleans,1.5171833333333333,be_annoyed,be_annoyed,owen,0.66,block1,Yes,i like this study,english,25,23
C,855,low_prior,1,28,projective,Danny is a diabetic,1.5171833333333333,admit,admit,danny,0.53,block1,Yes,i like this study,english,25,24
C,791,high_prior,1,29,projective,Olivia works the third shift,1.5171833333333333,suggest,suggest,olivia,0.61,block1,Yes,i like this study,english,25,25
C,775,high_prior,1,30,projective,Emily has been saving for a year,1.5171833333333333,say,say,emily,0.55,block1,Yes,i like this study,english,25,26
C,3173,high_prior,1,32,ai,Jon lives 2 blocks away from work,1.5171833333333333,inform,inform,jon,0.4,block2,Yes,i like this study,english,25,27
MC,872,NA,1,33,ai,Garages are used to store cars and other things,1.5171833333333333,MC,MC,garage,0.42000000000000004,block2,Yes,i like this study,english,25,28
MC,769,NA,1,34,ai,Muffins are sold at the bakery,1.5171833333333333,MC,MC,muffins,0.33999999999999997,block2,Yes,i like this study,english,25,29
C,1166,low_prior,1,35,ai,Emma is in first grade,1.5171833333333333,announce,announce,emma,0.42000000000000004,block2,Yes,i like this study,english,25,30
C,734,high_prior,1,36,ai,Mary is taking a prenatal yoga class,1.5171833333333333,acknowledge,acknowledge,mary,0.36,block2,Yes,i like this study,english,25,31
C,793,low_prior,1,37,ai,Julian is German,1.5171833333333333,establish,establish,julian,0.45999999999999996,block2,Yes,i like this study,english,25,32
C,2360,high_prior,1,38,ai,Josie loves France,1.5171833333333333,prove,prove,josie,0.31999999999999995,block2,Yes,i like this study,english,25,33
MC,791,NA,1,39,ai,Many children like ice cream,1.5171833333333333,MC,MC,kids,0.37,block2,Yes,i like this study,english,25,34
C,792,high_prior,1,40,ai,Josh is a 5-year old boy,1.5171833333333333,see,see,josh,0.32999999999999996,block2,Yes,i like this study,english,25,35
MC,767,NA,1,41,ai,Pizza is sold at the pizzeria,1.5171833333333333,MC,MC,pizza,0.38,block2,Yes,i like this study,english,25,36
C,727,high_prior,1,42,ai,Mia is a college student,1.5171833333333333,be_right,be_right,mia,0.44999999999999996,block2,Yes,i like this study,english,25,37
C,1375,low_prior,1,43,ai,Zoe is 5 years old,1.5171833333333333,discover,discover,zoe,0.35,block2,Yes,i like this study,english,25,38
MC,759,NA,1,44,ai,Ballet is a type of dance,1.5171833333333333,MC,MC,ballet,0.43999999999999995,block2,Yes,i like this study,english,25,39
C,1347,low_prior,1,45,ai,Charley lives in Korea,1.5171833333333333,pretend,pretend,charley,0.36,block2,Yes,i like this study,english,25,40
MC,1384,NA,1,46,ai,Hats are worn on the head,1.5171833333333333,MC,MC,hat,0.44999999999999996,block2,Yes,i like this study,english,25,41
C,1223,low_prior,1,47,ai,Sophia is a high end fashion model,1.5171833333333333,confess,confess,sophia,0.35,block2,Yes,i like this study,english,25,42
C,825,high_prior,1,48,ai,Jackson is training for a marathon,1.5171833333333333,reveal,reveal,jackson,0.41000000000000003,block2,Yes,i like this study,english,25,43
C,2990,low_prior,1,49,ai,Jayden doesn't have a driver's license,1.5171833333333333,confirm,confirm,jayden,0.43999999999999995,block2,Yes,i like this study,english,25,44
C,977,high_prior,1,50,ai,Isabella is from Argentina,1.5171833333333333,demonstrate,demonstrate,isabella,0.38,block2,Yes,i like this study,english,25,45
C,1304,high_prior,1,51,ai,Emily has been saving for a year,1.5171833333333333,say,say,emily,0.4,block2,Yes,i like this study,english,25,46
C,2647,low_prior,1,52,ai,Owen lives in New Orleans,1.5171833333333333,be_annoyed,be_annoyed,owen,0.35,block2,Yes,i like this study,english,25,47
C,871,low_prior,1,53,ai,Danny is a diabetic,1.5171833333333333,admit,admit,danny,0.4,block2,Yes,i like this study,english,25,48
C,1327,low_prior,1,54,ai,Tony has been sober for 20 years,1.5171833333333333,hear,hear,tony,0.30000000000000004,block2,Yes,i like this study,english,25,49
C,792,high_prior,1,55,ai,Olivia works the third shift,1.5171833333333333,suggest,suggest,olivia,0.41000000000000003,block2,Yes,i like this study,english,25,50
C,1224,low_prior,1,56,ai,Grace hates her sister,1.5171833333333333,know,know,grace,0.43000000000000005,block2,Yes,i like this study,english,25,51
C,776,high_prior,1,57,ai,Frank has always wanted a pet,1.5171833333333333,think,think,frank,0.37,block2,Yes,i like this study,english,25,52
MC,14377,NA,2,5,projective,Hats are worn on the head,9.838733333333334,MC,MC,hat,0,block1,Yes,"Interesting study. I feel like a lot of the questions can be interpreted in different ways, where both a yes or no can be given.",English,26,1
MC,7966,NA,2,6,projective,Pizza is sold at the pizzeria,9.838733333333334,MC,MC,pizza,0,block1,Yes,"Interesting study. I feel like a lot of the questions can be interpreted in different ways, where both a yes or no can be given.",English,26,2
C,7603,high_prior,2,7,projective,Sophia is a hipster,9.838733333333334,hear,hear,sophia,1,block1,Yes,"Interesting study. I feel like a lot of the questions can be interpreted in different ways, where both a yes or no can be given.",English,26,3
C,15140,low_prior,2,8,projective,Owen lives in New Orleans,9.838733333333334,prove,prove,owen,0,block1,Yes,"Interesting study. I feel like a lot of the questions can be interpreted in different ways, where both a yes or no can be given.",English,26,4
C,8597,high_prior,2,9,projective,Tony really likes to party with his friends,9.838733333333334,confess,confess,tony,0,block1,Yes,"Interesting study. I feel like a lot of the questions can be interpreted in different ways, where both a yes or no can be given.",English,26,5
C,7637,high_prior,2,10,projective,Danny loves cake,9.838733333333334,be_annoyed,be_annoyed,danny,1,block1,Yes,"Interesting study. I feel like a lot of the questions can be interpreted in different ways, where both a yes or no can be given.",English,26,6
C,5951,low_prior,2,11,projective,Mary is a middle school student,9.838733333333334,suggest,suggest,mary,0,block1,Yes,"Interesting study. I feel like a lot of the questions can be interpreted in different ways, where both a yes or no can be given.",English,26,7
C,11927,low_prior,2,12,projective,Isabella is a vegetarian,9.838733333333334,think,think,isabella,0,block1,Yes,"Interesting study. I feel like a lot of the questions can be interpreted in different ways, where both a yes or no can be given.",English,26,8
C,9100,low_prior,2,13,projective,Charley lives in Korea,9.838733333333334,admit,admit,charley,0,block1,Yes,"Interesting study. I feel like a lot of the questions can be interpreted in different ways, where both a yes or no can be given.",English,26,9
C,11011,high_prior,2,14,projective,Josie loves France,9.838733333333334,pretend,pretend,josie,0,block1,Yes,"Interesting study. I feel like a lot of the questions can be interpreted in different ways, where both a yes or no can be given.",English,26,10
MC,6148,NA,2,15,projective,Many children like ice cream,9.838733333333334,MC,MC,kids,0,block1,Yes,"Interesting study. I feel like a lot of the questions can be interpreted in different ways, where both a yes or no can be given.",English,26,11
C,10239,low_prior,2,16,projective,Jon lives 10 miles away from work,9.838733333333334,inform,inform,jon,1,block1,Yes,"Interesting study. I feel like a lot of the questions can be interpreted in different ways, where both a yes or no can be given.",English,26,12
MC,3993,NA,2,17,projective,Muffins are sold at the bakery,9.838733333333334,MC,MC,muffins,0,block1,Yes,"Interesting study. I feel like a lot of the questions can be interpreted in different ways, where both a yes or no can be given.",English,26,13
C,8081,low_prior,2,18,projective,Olivia has two small children,9.838733333333334,confirm,confirm,olivia,0,block1,Yes,"Interesting study. I feel like a lot of the questions can be interpreted in different ways, where both a yes or no can be given.",English,26,14
C,13611,low_prior,2,19,projective,Frank is allergic to cats,9.838733333333334,discover,discover,frank,0,block1,Yes,"Interesting study. I feel like a lot of the questions can be interpreted in different ways, where both a yes or no can be given.",English,26,15
C,7333,high_prior,2,20,projective,Josh is a 5-year old boy,9.838733333333334,be_right,be_right,josh,0,block1,Yes,"Interesting study. I feel like a lot of the questions can be interpreted in different ways, where both a yes or no can be given.",English,26,16
MC,3490,NA,2,21,projective,Ballet is a type of dance,9.838733333333334,MC,MC,ballet,0,block1,Yes,"Interesting study. I feel like a lot of the questions can be interpreted in different ways, where both a yes or no can be given.",English,26,17
MC,6892,NA,2,22,projective,Garages are used to store cars and other things,9.838733333333334,MC,MC,garage,0,block1,Yes,"Interesting study. I feel like a lot of the questions can be interpreted in different ways, where both a yes or no can be given.",English,26,18
C,14924,low_prior,2,23,projective,Emily never has any money,9.838733333333334,acknowledge,acknowledge,emily,0,block1,Yes,"Interesting study. I feel like a lot of the questions can be interpreted in different ways, where both a yes or no can be given.",English,26,19
C,6209,high_prior,2,24,projective,Jayden's car is in the shop,9.838733333333334,reveal,reveal,jayden,0,block1,Yes,"Interesting study. I feel like a lot of the questions can be interpreted in different ways, where both a yes or no can be given.",English,26,20
C,6270,low_prior,2,25,projective,Zoe is 5 years old,9.838733333333334,say,say,zoe,0,block1,Yes,"Interesting study. I feel like a lot of the questions can be interpreted in different ways, where both a yes or no can be given.",English,26,21
C,6349,high_prior,2,26,projective,Jackson is training for a marathon,9.838733333333334,announce,announce,jackson,0,block1,Yes,"Interesting study. I feel like a lot of the questions can be interpreted in different ways, where both a yes or no can be given.",English,26,22
C,6519,high_prior,2,27,projective,Julian is Cuban,9.838733333333334,know,know,julian,1,block1,Yes,"Interesting study. I feel like a lot of the questions can be interpreted in different ways, where both a yes or no can be given.",English,26,23
C,9430,high_prior,2,28,projective,Grace loves her sister,9.838733333333334,establish,establish,grace,0,block1,Yes,"Interesting study. I feel like a lot of the questions can be interpreted in different ways, where both a yes or no can be given.",English,26,24
C,5959,high_prior,2,29,projective,Mia is a college student,9.838733333333334,demonstrate,demonstrate,mia,0,block1,Yes,"Interesting study. I feel like a lot of the questions can be interpreted in different ways, where both a yes or no can be given.",English,26,25
C,5730,low_prior,2,30,projective,Emma is in first grade,9.838733333333334,see,see,emma,1,block1,Yes,"Interesting study. I feel like a lot of the questions can be interpreted in different ways, where both a yes or no can be given.",English,26,26
C,40567,low_prior,2,32,ai,Emily never has any money,9.838733333333334,acknowledge,acknowledge,emily,1,block2,Yes,"Interesting study. I feel like a lot of the questions can be interpreted in different ways, where both a yes or no can be given.",English,26,27
C,15231,low_prior,2,33,ai,Mary is a middle school student,9.838733333333334,suggest,suggest,mary,1,block2,Yes,"Interesting study. I feel like a lot of the questions can be interpreted in different ways, where both a yes or no can be given.",English,26,28
C,5368,low_prior,2,34,ai,Isabella is a vegetarian,9.838733333333334,think,think,isabella,1,block2,Yes,"Interesting study. I feel like a lot of the questions can be interpreted in different ways, where both a yes or no can be given.",English,26,29
C,5685,high_prior,2,35,ai,Josie loves France,9.838733333333334,pretend,pretend,josie,1,block2,Yes,"Interesting study. I feel like a lot of the questions can be interpreted in different ways, where both a yes or no can be given.",English,26,30
C,7140,low_prior,2,36,ai,Charley lives in Korea,9.838733333333334,admit,admit,charley,1,block2,Yes,"Interesting study. I feel like a lot of the questions can be interpreted in different ways, where both a yes or no can be given.",English,26,31
C,13002,high_prior,2,37,ai,Josh is a 5-year old boy,9.838733333333334,be_right,be_right,josh,0,block2,Yes,"Interesting study. I feel like a lot of the questions can be interpreted in different ways, where both a yes or no can be given.",English,26,32
C,9178,high_prior,2,38,ai,Grace loves her sister,9.838733333333334,establish,establish,grace,0,block2,Yes,"Interesting study. I feel like a lot of the questions can be interpreted in different ways, where both a yes or no can be given.",English,26,33
C,10802,high_prior,2,39,ai,Sophia is a hipster,9.838733333333334,hear,hear,sophia,1,block2,Yes,"Interesting study. I feel like a lot of the questions can be interpreted in different ways, where both a yes or no can be given.",English,26,34
C,10271,high_prior,2,40,ai,Mia is a college student,9.838733333333334,demonstrate,demonstrate,mia,1,block2,Yes,"Interesting study. I feel like a lot of the questions can be interpreted in different ways, where both a yes or no can be given.",English,26,35
MC,8874,NA,2,41,ai,Muffins are sold at the bakery,9.838733333333334,MC,MC,muffins,0,block2,Yes,"Interesting study. I feel like a lot of the questions can be interpreted in different ways, where both a yes or no can be given.",English,26,36
C,6623,high_prior,2,42,ai,Jackson is training for a marathon,9.838733333333334,announce,announce,jackson,0,block2,Yes,"Interesting study. I feel like a lot of the questions can be interpreted in different ways, where both a yes or no can be given.",English,26,37
MC,7546,NA,2,43,ai,Ballet is a type of dance,9.838733333333334,MC,MC,ballet,0,block2,Yes,"Interesting study. I feel like a lot of the questions can be interpreted in different ways, where both a yes or no can be given.",English,26,38
C,10254,high_prior,2,44,ai,Tony really likes to party with his friends,9.838733333333334,confess,confess,tony,0,block2,Yes,"Interesting study. I feel like a lot of the questions can be interpreted in different ways, where both a yes or no can be given.",English,26,39
C,15420,low_prior,2,45,ai,Emma is in first grade,9.838733333333334,see,see,emma,1,block2,Yes,"Interesting study. I feel like a lot of the questions can be interpreted in different ways, where both a yes or no can be given.",English,26,40
C,4836,low_prior,2,46,ai,Jon lives 10 miles away from work,9.838733333333334,inform,inform,jon,1,block2,Yes,"Interesting study. I feel like a lot of the questions can be interpreted in different ways, where both a yes or no can be given.",English,26,41
C,9590,high_prior,2,47,ai,Julian is Cuban,9.838733333333334,know,know,julian,1,block2,Yes,"Interesting study. I feel like a lot of the questions can be interpreted in different ways, where both a yes or no can be given.",English,26,42
MC,2548,NA,2,48,ai,Garages are used to store cars and other things,9.838733333333334,MC,MC,garage,0,block2,Yes,"Interesting study. I feel like a lot of the questions can be interpreted in different ways, where both a yes or no can be given.",English,26,43
C,3684,high_prior,2,49,ai,Danny loves cake,9.838733333333334,be_annoyed,be_annoyed,danny,1,block2,Yes,"Interesting study. I feel like a lot of the questions can be interpreted in different ways, where both a yes or no can be given.",English,26,44
C,8986,low_prior,2,50,ai,Zoe is 5 years old,9.838733333333334,say,say,zoe,0,block2,Yes,"Interesting study. I feel like a lot of the questions can be interpreted in different ways, where both a yes or no can be given.",English,26,45
MC,6268,NA,2,51,ai,Pizza is sold at the pizzeria,9.838733333333334,MC,MC,pizza,0,block2,Yes,"Interesting study. I feel like a lot of the questions can be interpreted in different ways, where both a yes or no can be given.",English,26,46
MC,4452,NA,2,52,ai,Hats are worn on the head,9.838733333333334,MC,MC,hat,0,block2,Yes,"Interesting study. I feel like a lot of the questions can be interpreted in different ways, where both a yes or no can be given.",English,26,47
MC,5752,NA,2,53,ai,Many children like ice cream,9.838733333333334,MC,MC,kids,0,block2,Yes,"Interesting study. I feel like a lot of the questions can be interpreted in different ways, where both a yes or no can be given.",English,26,48
C,5411,low_prior,2,54,ai,Olivia has two small children,9.838733333333334,confirm,confirm,olivia,0,block2,Yes,"Interesting study. I feel like a lot of the questions can be interpreted in different ways, where both a yes or no can be given.",English,26,49
C,9926,low_prior,2,55,ai,Frank is allergic to cats,9.838733333333334,discover,discover,frank,1,block2,Yes,"Interesting study. I feel like a lot of the questions can be interpreted in different ways, where both a yes or no can be given.",English,26,50
C,8324,low_prior,2,56,ai,Owen lives in New Orleans,9.838733333333334,prove,prove,owen,1,block2,Yes,"Interesting study. I feel like a lot of the questions can be interpreted in different ways, where both a yes or no can be given.",English,26,51
C,6417,high_prior,2,57,ai,Jayden's car is in the shop,9.838733333333334,reveal,reveal,jayden,0,block2,Yes,"Interesting study. I feel like a lot of the questions can be interpreted in different ways, where both a yes or no can be given.",English,26,52
MC,9247,NA,3,5,ai,Hats are worn on the head,8.221016666666667,MC,MC,hat,0.010000000000000009,block1,Yes,"Enjoyed this HIT, Thanks!",english,54,1
MC,6264,NA,3,6,ai,Garages are used to store cars and other things,8.221016666666667,MC,MC,garage,0,block1,Yes,"Enjoyed this HIT, Thanks!",english,54,2
C,9136,low_prior,3,7,ai,Owen lives in New Orleans,8.221016666666667,reveal,reveal,owen,0.73,block1,Yes,"Enjoyed this HIT, Thanks!",english,54,3
C,9145,low_prior,3,8,ai,Jon lives 10 miles away from work,8.221016666666667,think,think,jon,1,block1,Yes,"Enjoyed this HIT, Thanks!",english,54,4
C,11480,low_prior,3,9,ai,Emily never has any money,8.221016666666667,be_annoyed,be_annoyed,emily,0.99,block1,Yes,"Enjoyed this HIT, Thanks!",english,54,5
C,6304,high_prior,3,10,ai,Jayden's car is in the shop,8.221016666666667,know,know,jayden,0.99,block1,Yes,"Enjoyed this HIT, Thanks!",english,54,6
C,9705,high_prior,3,11,ai,Julian is Cuban,8.221016666666667,inform,inform,julian,1,block1,Yes,"Enjoyed this HIT, Thanks!",english,54,7
C,8864,low_prior,3,12,ai,Charley lives in Korea,8.221016666666667,confirm,confirm,charley,0.17000000000000004,block1,Yes,"Enjoyed this HIT, Thanks!",english,54,8
C,12936,low_prior,3,13,ai,Sophia is a high end fashion model,8.221016666666667,announce,announce,sophia,0.45999999999999996,block1,Yes,"Enjoyed this HIT, Thanks!",english,54,9
C,5872,low_prior,3,14,ai,Jackson is obese,8.221016666666667,see,see,jackson,0.96,block1,Yes,"Enjoyed this HIT, Thanks!",english,54,10
MC,6752,NA,3,15,ai,Many children like ice cream,8.221016666666667,MC,MC,kids,0,block1,Yes,"Enjoyed this HIT, Thanks!",english,54,11
C,6335,high_prior,3,16,ai,Grace loves her sister,8.221016666666667,be_right,be_right,grace,0.17000000000000004,block1,Yes,"Enjoyed this HIT, Thanks!",english,54,12
C,10929,high_prior,3,17,ai,Olivia works the third shift,8.221016666666667,confess,confess,olivia,0.47,block1,Yes,"Enjoyed this HIT, Thanks!",english,54,13
C,7272,low_prior,3,18,ai,Zoe is 5 years old,8.221016666666667,admit,admit,zoe,0.49,block1,Yes,"Enjoyed this HIT, Thanks!",english,54,14
C,7240,high_prior,3,19,ai,Danny loves cake,8.221016666666667,hear,hear,danny,0.65,block1,Yes,"Enjoyed this HIT, Thanks!",english,54,15
C,8432,high_prior,3,20,ai,Isabella is from Argentina,8.221016666666667,discover,discover,isabella,0.51,block1,Yes,"Enjoyed this HIT, Thanks!",english,54,16
C,10776,high_prior,3,21,ai,Mary is taking a prenatal yoga class,8.221016666666667,prove,prove,mary,0.55,block1,Yes,"Enjoyed this HIT, Thanks!",english,54,17
C,13448,high_prior,3,22,ai,Emma is in law school,8.221016666666667,suggest,suggest,emma,0.42000000000000004,block1,Yes,"Enjoyed this HIT, Thanks!",english,54,18
MC,4832,NA,3,23,ai,Muffins are sold at the bakery,8.221016666666667,MC,MC,muffins,0,block1,Yes,"Enjoyed this HIT, Thanks!",english,54,19
C,9800,low_prior,3,24,ai,Josh is a 75-year old man,8.221016666666667,pretend,pretend,josh,0.5900000000000001,block1,Yes,"Enjoyed this HIT, Thanks!",english,54,20
C,10272,low_prior,3,25,ai,Frank is allergic to cats,8.221016666666667,say,say,frank,0.16000000000000003,block1,Yes,"Enjoyed this HIT, Thanks!",english,54,21
C,19024,low_prior,3,26,ai,Josie doesn't have a passport,8.221016666666667,establish,establish,josie,0.39,block1,Yes,"Enjoyed this HIT, Thanks!",english,54,22
C,7360,high_prior,3,27,ai,Tony really likes to party with his friends,8.221016666666667,acknowledge,acknowledge,tony,0.47,block1,Yes,"Enjoyed this HIT, Thanks!",english,54,23
MC,4048,NA,3,28,ai,Ballet is a type of dance,8.221016666666667,MC,MC,ballet,0,block1,Yes,"Enjoyed this HIT, Thanks!",english,54,24
C,13121,high_prior,3,29,ai,Mia is a college student,8.221016666666667,demonstrate,demonstrate,mia,0.43000000000000005,block1,Yes,"Enjoyed this HIT, Thanks!",english,54,25
MC,2616,NA,3,30,ai,Pizza is sold at the pizzeria,8.221016666666667,MC,MC,pizza,0,block1,Yes,"Enjoyed this HIT, Thanks!",english,54,26
C,10079,high_prior,3,32,projective,Isabella is from Argentina,8.221016666666667,discover,discover,isabella,0.71,block2,Yes,"Enjoyed this HIT, Thanks!",english,54,27
C,6153,high_prior,3,33,projective,Mary is taking a prenatal yoga class,8.221016666666667,prove,prove,mary,0.41,block2,Yes,"Enjoyed this HIT, Thanks!",english,54,28
C,8064,low_prior,3,34,projective,Jon lives 10 miles away from work,8.221016666666667,think,think,jon,0.12,block2,Yes,"Enjoyed this HIT, Thanks!",english,54,29
MC,4120,NA,3,35,projective,Muffins are sold at the bakery,8.221016666666667,MC,MC,muffins,0,block2,Yes,"Enjoyed this HIT, Thanks!",english,54,30
C,7568,high_prior,3,36,projective,Mia is a college student,8.221016666666667,demonstrate,demonstrate,mia,0.29,block2,Yes,"Enjoyed this HIT, Thanks!",english,54,31
C,7472,low_prior,3,37,projective,Josie doesn't have a passport,8.221016666666667,establish,establish,josie,0.05,block2,Yes,"Enjoyed this HIT, Thanks!",english,54,32
C,6624,low_prior,3,38,projective,Charley lives in Korea,8.221016666666667,confirm,confirm,charley,0.05,block2,Yes,"Enjoyed this HIT, Thanks!",english,54,33
C,10248,low_prior,3,39,projective,Owen lives in New Orleans,8.221016666666667,reveal,reveal,owen,0.5,block2,Yes,"Enjoyed this HIT, Thanks!",english,54,34
C,6232,low_prior,3,40,projective,Zoe is 5 years old,8.221016666666667,admit,admit,zoe,0.27,block2,Yes,"Enjoyed this HIT, Thanks!",english,54,35
C,13104,high_prior,3,41,projective,Jayden's car is in the shop,8.221016666666667,know,know,jayden,0.5,block2,Yes,"Enjoyed this HIT, Thanks!",english,54,36
MC,3432,NA,3,42,projective,Pizza is sold at the pizzeria,8.221016666666667,MC,MC,pizza,0,block2,Yes,"Enjoyed this HIT, Thanks!",english,54,37
C,8216,low_prior,3,43,projective,Emily never has any money,8.221016666666667,be_annoyed,be_annoyed,emily,1,block2,Yes,"Enjoyed this HIT, Thanks!",english,54,38
MC,3599,NA,3,44,projective,Garages are used to store cars and other things,8.221016666666667,MC,MC,garage,0,block2,Yes,"Enjoyed this HIT, Thanks!",english,54,39
C,5679,high_prior,3,45,projective,Danny loves cake,8.221016666666667,hear,hear,danny,0.82,block2,Yes,"Enjoyed this HIT, Thanks!",english,54,40
C,4728,low_prior,3,46,projective,Jackson is obese,8.221016666666667,see,see,jackson,0.79,block2,Yes,"Enjoyed this HIT, Thanks!",english,54,41
C,14112,high_prior,3,47,projective,Emma is in law school,8.221016666666667,suggest,suggest,emma,0.11,block2,Yes,"Enjoyed this HIT, Thanks!",english,54,42
C,7105,high_prior,3,48,projective,Julian is Cuban,8.221016666666667,inform,inform,julian,0.62,block2,Yes,"Enjoyed this HIT, Thanks!",english,54,43
C,10240,high_prior,3,49,projective,Grace loves her sister,8.221016666666667,be_right,be_right,grace,0,block2,Yes,"Enjoyed this HIT, Thanks!",english,54,44
MC,4376,NA,3,50,projective,Hats are worn on the head,8.221016666666667,MC,MC,hat,0,block2,Yes,"Enjoyed this HIT, Thanks!",english,54,45
C,10512,low_prior,3,51,projective,Frank is allergic to cats,8.221016666666667,say,say,frank,0,block2,Yes,"Enjoyed this HIT, Thanks!",english,54,46
C,6833,low_prior,3,52,projective,Sophia is a high end fashion model,8.221016666666667,announce,announce,sophia,0,block2,Yes,"Enjoyed this HIT, Thanks!",english,54,47
C,9912,high_prior,3,53,projective,Tony really likes to party with his friends,8.221016666666667,acknowledge,acknowledge,tony,0.55,block2,Yes,"Enjoyed this HIT, Thanks!",english,54,48
MC,4304,NA,3,54,projective,Ballet is a type of dance,8.221016666666667,MC,MC,ballet,0,block2,Yes,"Enjoyed this HIT, Thanks!",english,54,49
C,7472,high_prior,3,55,projective,Olivia works the third shift,8.221016666666667,confess,confess,olivia,0.47,block2,Yes,"Enjoyed this HIT, Thanks!",english,54,50
MC,4417,NA,3,56,projective,Many children like ice cream,8.221016666666667,MC,MC,kids,0,block2,Yes,"Enjoyed this HIT, Thanks!",english,54,51
C,11016,low_prior,3,57,projective,Josh is a 75-year old man,8.221016666666667,pretend,pretend,josh,0,block2,Yes,"Enjoyed this HIT, Thanks!",english,54,52
C,31220,low_prior,4,5,ai,Frank is allergic to cats,14.68005,know,know,frank,1,block1,Yes,NA,English,30,1
C,15284,low_prior,4,6,ai,Tony has been sober for 20 years,14.68005,confirm,confirm,tony,0.21999999999999997,block1,Yes,NA,English,30,2
C,20931,high_prior,4,7,ai,Josie loves France,14.68005,demonstrate,demonstrate,josie,0.74,block1,Yes,NA,English,30,3
C,48286,high_prior,4,8,ai,Olivia works the third shift,14.68005,see,see,olivia,1,block1,Yes,NA,English,30,4
C,16892,low_prior,4,9,ai,Mia is a nun,14.68005,reveal,reveal,mia,0.8200000000000001,block1,Yes,NA,English,30,5
C,27212,low_prior,4,10,ai,Jon lives 10 miles away from work,14.68005,hear,hear,jon,0.71,block1,Yes,NA,English,30,6
MC,18507,NA,4,11,ai,Garages are used to store cars and other things,14.68005,MC,MC,garage,0,block1,Yes,NA,English,30,7
C,15508,low_prior,4,12,ai,Sophia is a high end fashion model,14.68005,establish,establish,sophia,0.26,block1,Yes,NA,English,30,8
C,18286,high_prior,4,13,ai,Emily has been saving for a year,14.68005,be_annoyed,be_annoyed,emily,1,block1,Yes,NA,English,30,9
C,17208,low_prior,4,14,ai,Jayden doesn't have a driver's license,14.68005,discover,discover,jayden,0.91,block1,Yes,NA,English,30,10
C,19055,high_prior,4,15,ai,Danny loves cake,14.68005,say,say,danny,0.06000000000000005,block1,Yes,NA,English,30,11
MC,37718,NA,4,16,ai,Hats are worn on the head,14.68005,MC,MC,hat,0,block1,Yes,NA,English,30,12
C,10965,low_prior,4,17,ai,Emma is in first grade,14.68005,pretend,pretend,emma,0.5800000000000001,block1,Yes,NA,English,30,13
C,19813,low_prior,4,18,ai,Julian is German,14.68005,think,think,julian,0.88,block1,Yes,NA,English,30,14
MC,11388,NA,4,19,ai,Many children like ice cream,14.68005,MC,MC,kids,0,block1,Yes,NA,English,30,15
MC,8437,NA,4,20,ai,Ballet is a type of dance,14.68005,MC,MC,ballet,0,block1,Yes,NA,English,30,16
C,19981,high_prior,4,21,ai,Grace loves her sister,14.68005,suggest,suggest,grace,0.050000000000000044,block1,Yes,NA,English,30,17
C,12391,high_prior,4,22,ai,Jackson is training for a marathon,14.68005,acknowledge,acknowledge,jackson,1,block1,Yes,NA,English,30,18
C,17864,low_prior,4,23,ai,Isabella is a vegetarian,14.68005,admit,admit,isabella,0.95,block1,Yes,NA,English,30,19
C,25729,high_prior,4,24,ai,Zoe is a math major,14.68005,be_right,be_right,zoe,0,block1,Yes,NA,English,30,20
C,14608,high_prior,4,25,ai,Charley lives in Mexico,14.68005,announce,announce,charley,0.96,block1,Yes,NA,English,30,21
C,17473,low_prior,4,26,ai,Mary is a middle school student,14.68005,inform,inform,mary,0.7,block1,Yes,NA,English,30,22
C,23671,high_prior,4,27,ai,Owen lives in Chicago,14.68005,confess,confess,owen,0.89,block1,Yes,NA,English,30,23
MC,11512,NA,4,28,ai,Pizza is sold at the pizzeria,14.68005,MC,MC,pizza,0,block1,Yes,NA,English,30,24
MC,5731,NA,4,29,ai,Muffins are sold at the bakery,14.68005,MC,MC,muffins,0,block1,Yes,NA,English,30,25
C,15965,high_prior,4,30,ai,Josh is a 5-year old boy,14.68005,prove,prove,josh,0.33999999999999997,block1,Yes,NA,English,30,26
C,59386,low_prior,4,32,projective,Emma is in first grade,14.68005,pretend,pretend,emma,0,block2,Yes,NA,English,30,27
C,13612,low_prior,4,33,projective,Sophia is a high end fashion model,14.68005,establish,establish,sophia,0.06,block2,Yes,NA,English,30,28
MC,6657,NA,4,34,projective,Many children like ice cream,14.68005,MC,MC,kids,0,block2,Yes,NA,English,30,29
C,11135,high_prior,4,35,projective,Grace loves her sister,14.68005,suggest,suggest,grace,0,block2,Yes,NA,English,30,30
MC,8259,NA,4,36,projective,Ballet is a type of dance,14.68005,MC,MC,ballet,0,block2,Yes,NA,English,30,31
MC,6072,NA,4,37,projective,Hats are worn on the head,14.68005,MC,MC,hat,0,block2,Yes,NA,English,30,32
C,15661,low_prior,4,38,projective,Frank is allergic to cats,14.68005,know,know,frank,0.95,block2,Yes,NA,English,30,33
C,10876,high_prior,4,39,projective,Jackson is training for a marathon,14.68005,acknowledge,acknowledge,jackson,0.93,block2,Yes,NA,English,30,34
C,13622,low_prior,4,40,projective,Jayden doesn't have a driver's license,14.68005,discover,discover,jayden,0.74,block2,Yes,NA,English,30,35
C,7680,high_prior,4,41,projective,Emily has been saving for a year,14.68005,be_annoyed,be_annoyed,emily,0.92,block2,Yes,NA,English,30,36
MC,4783,NA,4,42,projective,Muffins are sold at the bakery,14.68005,MC,MC,muffins,0,block2,Yes,NA,English,30,37
C,7186,low_prior,4,43,projective,Isabella is a vegetarian,14.68005,admit,admit,isabella,0.73,block2,Yes,NA,English,30,38
C,11055,high_prior,4,44,projective,Danny loves cake,14.68005,say,say,danny,0,block2,Yes,NA,English,30,39
C,11497,low_prior,4,45,projective,Mary is a middle school student,14.68005,inform,inform,mary,0.95,block2,Yes,NA,English,30,40
C,8398,high_prior,4,46,projective,Josh is a 5-year old boy,14.68005,prove,prove,josh,0.04,block2,Yes,NA,English,30,41
C,9410,high_prior,4,47,projective,Olivia works the third shift,14.68005,see,see,olivia,1,block2,Yes,NA,English,30,42
C,21959,low_prior,4,48,projective,Jon lives 10 miles away from work,14.68005,hear,hear,jon,0.7,block2,Yes,NA,English,30,43
C,7863,high_prior,4,49,projective,Zoe is a math major,14.68005,be_right,be_right,zoe,0,block2,Yes,NA,English,30,44
C,8119,high_prior,4,50,projective,Charley lives in Mexico,14.68005,announce,announce,charley,0.91,block2,Yes,NA,English,30,45
C,6044,low_prior,4,51,projective,Mia is a nun,14.68005,reveal,reveal,mia,0.88,block2,Yes,NA,English,30,46
C,6359,low_prior,4,52,projective,Julian is German,14.68005,think,think,julian,0,block2,Yes,NA,English,30,47
C,16390,high_prior,4,53,projective,Josie loves France,14.68005,demonstrate,demonstrate,josie,0.04,block2,Yes,NA,English,30,48
MC,5252,NA,4,54,projective,Garages are used to store cars and other things,14.68005,MC,MC,garage,0,block2,Yes,NA,English,30,49
C,13610,low_prior,4,55,projective,Tony has been sober for 20 years,14.68005,confirm,confirm,tony,0,block2,Yes,NA,English,30,50
MC,4079,NA,4,56,projective,Pizza is sold at the pizzeria,14.68005,MC,MC,pizza,0,block2,Yes,NA,English,30,51
C,12034,high_prior,4,57,projective,Owen lives in Chicago,14.68005,confess,confess,owen,0.07,block2,Yes,NA,English,30,52
MC,30295,NA,5,5,projective,Garages are used to store cars and other things,18.51355,MC,MC,garage,0.01,block1,Yes,Great survey,English,59,1
C,47201,low_prior,5,6,projective,Josie doesn't have a passport,18.51355,establish,establish,josie,0.02,block1,Yes,Great survey,English,59,2
C,39628,high_prior,5,7,projective,Mary is taking a prenatal yoga class,18.51355,inform,inform,mary,0.6,block1,Yes,Great survey,English,59,3
C,24863,low_prior,5,8,projective,Zoe is 5 years old,18.51355,confess,confess,zoe,0.14,block1,Yes,Great survey,English,59,4
MC,9593,NA,5,9,projective,Ballet is a type of dance,18.51355,MC,MC,ballet,0,block1,Yes,Great survey,English,59,5
C,15815,low_prior,5,10,projective,Isabella is a vegetarian,18.51355,demonstrate,demonstrate,isabella,0.08,block1,Yes,Great survey,English,59,6
C,14074,low_prior,5,11,projective,Jon lives 10 miles away from work,18.51355,hear,hear,jon,0.1,block1,Yes,Great survey,English,59,7
C,15347,high_prior,5,12,projective,Jackson is training for a marathon,18.51355,think,think,jackson,0.09,block1,Yes,Great survey,English,59,8
MC,12597,NA,5,13,projective,Muffins are sold at the bakery,18.51355,MC,MC,muffins,0.01,block1,Yes,Great survey,English,59,9
C,22230,low_prior,5,14,projective,Danny is a diabetic,18.51355,be_annoyed,be_annoyed,danny,0.78,block1,Yes,Great survey,English,59,10
C,23744,low_prior,5,15,projective,Emily never has any money,18.51355,acknowledge,acknowledge,emily,0.06,block1,Yes,Great survey,English,59,11
C,16699,high_prior,5,16,projective,Julian is Cuban,18.51355,say,say,julian,0.08,block1,Yes,Great survey,English,59,12
C,34258,low_prior,5,17,projective,Owen lives in New Orleans,18.51355,see,see,owen,0.01,block1,Yes,Great survey,English,59,13
MC,155175,NA,5,18,projective,Hats are worn on the head,18.51355,MC,MC,hat,0.04,block1,Yes,Great survey,English,59,14
C,13672,low_prior,5,19,projective,Charley lives in Korea,18.51355,announce,announce,charley,0,block1,Yes,Great survey,English,59,15
C,11765,high_prior,5,20,projective,Josh is a 5-year old boy,18.51355,pretend,pretend,josh,0.01,block1,Yes,Great survey,English,59,16
C,11693,low_prior,5,21,projective,Frank is allergic to cats,18.51355,reveal,reveal,frank,0.01,block1,Yes,Great survey,English,59,17
MC,17121,NA,5,22,projective,Many children like ice cream,18.51355,MC,MC,kids,0.01,block1,Yes,Great survey,English,59,18
C,12277,low_prior,5,23,projective,Mia is a nun,18.51355,be_right,be_right,mia,0.02,block1,Yes,Great survey,English,59,19
C,11223,high_prior,5,24,projective,Grace loves her sister,18.51355,discover,discover,grace,0.05,block1,Yes,Great survey,English,59,20
C,11668,high_prior,5,25,projective,Jayden's car is in the shop,18.51355,suggest,suggest,jayden,0.06,block1,Yes,Great survey,English,59,21
C,8627,high_prior,5,26,projective,Sophia is a hipster,18.51355,prove,prove,sophia,0.01,block1,Yes,Great survey,English,59,22
C,10455,high_prior,5,27,projective,Olivia works the third shift,18.51355,know,know,olivia,0.01,block1,Yes,Great survey,English,59,23
C,12218,high_prior,5,28,projective,Tony really likes to party with his friends,18.51355,admit,admit,tony,0.09,block1,Yes,Great survey,English,59,24
MC,12134,NA,5,29,projective,Pizza is sold at the pizzeria,18.51355,MC,MC,pizza,0,block1,Yes,Great survey,English,59,25
C,7890,high_prior,5,30,projective,Emma is in law school,18.51355,confirm,confirm,emma,0,block1,Yes,Great survey,English,59,26
MC,25777,NA,5,32,ai,Many children like ice cream,18.51355,MC,MC,kids,0.020000000000000018,block2,Yes,Great survey,English,59,27
C,51064,high_prior,5,33,ai,Grace loves her sister,18.51355,discover,discover,grace,0.83,block2,Yes,Great survey,English,59,28
C,20432,high_prior,5,34,ai,Jayden's car is in the shop,18.51355,suggest,suggest,jayden,0.48,block2,Yes,Great survey,English,59,29
C,26021,high_prior,5,35,ai,Julian is Cuban,18.51355,say,say,julian,0.38,block2,Yes,Great survey,English,59,30
MC,12524,NA,5,36,ai,Hats are worn on the head,18.51355,MC,MC,hat,0.010000000000000009,block2,Yes,Great survey,English,59,31
MC,6618,NA,5,37,ai,Ballet is a type of dance,18.51355,MC,MC,ballet,0.010000000000000009,block2,Yes,Great survey,English,59,32
C,13310,low_prior,5,38,ai,Mia is a nun,18.51355,be_right,be_right,mia,0.4,block2,Yes,Great survey,English,59,33
MC,10266,NA,5,39,ai,Garages are used to store cars and other things,18.51355,MC,MC,garage,0.020000000000000018,block2,Yes,Great survey,English,59,34
C,12498,low_prior,5,40,ai,Danny is a diabetic,18.51355,be_annoyed,be_annoyed,danny,0.95,block2,Yes,Great survey,English,59,35
C,14101,high_prior,5,41,ai,Tony really likes to party with his friends,18.51355,admit,admit,tony,0.5,block2,Yes,Great survey,English,59,36
C,9702,low_prior,5,42,ai,Frank is allergic to cats,18.51355,reveal,reveal,frank,0.47,block2,Yes,Great survey,English,59,37
C,11367,high_prior,5,43,ai,Emma is in law school,18.51355,confirm,confirm,emma,0.52,block2,Yes,Great survey,English,59,38
MC,6585,NA,5,44,ai,Muffins are sold at the bakery,18.51355,MC,MC,muffins,0.010000000000000009,block2,Yes,Great survey,English,59,39
C,8619,low_prior,5,45,ai,Emily never has any money,18.51355,acknowledge,acknowledge,emily,0.33999999999999997,block2,Yes,Great survey,English,59,40
C,8151,low_prior,5,46,ai,Isabella is a vegetarian,18.51355,demonstrate,demonstrate,isabella,0.38,block2,Yes,Great survey,English,59,41
C,11549,high_prior,5,47,ai,Mary is taking a prenatal yoga class,18.51355,inform,inform,mary,0.51,block2,Yes,Great survey,English,59,42
C,10530,high_prior,5,48,ai,Jackson is training for a marathon,18.51355,think,think,jackson,0.83,block2,Yes,Great survey,English,59,43
C,14749,low_prior,5,49,ai,Jon lives 10 miles away from work,18.51355,hear,hear,jon,0.73,block2,Yes,Great survey,English,59,44
C,13730,high_prior,5,50,ai,Josh is a 5-year old boy,18.51355,pretend,pretend,josh,0.6799999999999999,block2,Yes,Great survey,English,59,45
C,19708,low_prior,5,51,ai,Owen lives in New Orleans,18.51355,see,see,owen,0.89,block2,Yes,Great survey,English,59,46
C,9296,high_prior,5,52,ai,Sophia is a hipster,18.51355,prove,prove,sophia,0.43999999999999995,block2,Yes,Great survey,English,59,47
C,8703,high_prior,5,53,ai,Olivia works the third shift,18.51355,know,know,olivia,0.63,block2,Yes,Great survey,English,59,48
C,12302,low_prior,5,54,ai,Charley lives in Korea,18.51355,announce,announce,charley,0.61,block2,Yes,Great survey,English,59,49
C,12707,low_prior,5,55,ai,Josie doesn't have a passport,18.51355,establish,establish,josie,0.4,block2,Yes,Great survey,English,59,50
C,23852,low_prior,5,56,ai,Zoe is 5 years old,18.51355,confess,confess,zoe,0.56,block2,Yes,Great survey,English,59,51
MC,8131,NA,5,57,ai,Pizza is sold at the pizzeria,18.51355,MC,MC,pizza,0.010000000000000009,block2,Yes,Great survey,English,59,52
C,18969,high_prior,6,5,ai,Sophia is a hipster,7.745383333333334,prove,prove,sophia,0.28,block1,Yes,NA,English,50,1
MC,6661,NA,6,6,ai,Ballet is a type of dance,7.745383333333334,MC,MC,ballet,0.010000000000000009,block1,Yes,NA,English,50,2
C,9150,low_prior,6,7,ai,Tony has been sober for 20 years,7.745383333333334,acknowledge,acknowledge,tony,0.22999999999999998,block1,Yes,NA,English,50,3
MC,7681,NA,6,8,ai,Pizza is sold at the pizzeria,7.745383333333334,MC,MC,pizza,0,block1,Yes,NA,English,50,4
C,5936,high_prior,6,9,ai,Jackson is training for a marathon,7.745383333333334,announce,announce,jackson,0.24,block1,Yes,NA,English,50,5
C,10604,high_prior,6,10,ai,Zoe is a math major,7.745383333333334,inform,inform,zoe,0.78,block1,Yes,NA,English,50,6
C,8760,high_prior,6,11,ai,Grace loves her sister,7.745383333333334,pretend,pretend,grace,0.71,block1,Yes,NA,English,50,7
C,6820,low_prior,6,12,ai,Charley lives in Korea,7.745383333333334,hear,hear,charley,0.19999999999999996,block1,Yes,NA,English,50,8
C,13757,low_prior,6,13,ai,Owen lives in New Orleans,7.745383333333334,be_annoyed,be_annoyed,owen,0.85,block1,Yes,NA,English,50,9
C,7132,low_prior,6,14,ai,Josh is a 75-year old man,7.745383333333334,confirm,confirm,josh,0.17000000000000004,block1,Yes,NA,English,50,10
MC,5895,NA,6,15,ai,Hats are worn on the head,7.745383333333334,MC,MC,hat,0,block1,Yes,NA,English,50,11
C,7957,low_prior,6,16,ai,Olivia has two small children,7.745383333333334,establish,establish,olivia,0.15000000000000002,block1,Yes,NA,English,50,12
MC,5026,NA,6,17,ai,Garages are used to store cars and other things,7.745383333333334,MC,MC,garage,0,block1,Yes,NA,English,50,13
C,7363,high_prior,6,18,ai,Emma is in law school,7.745383333333334,admit,admit,emma,0.22999999999999998,block1,Yes,NA,English,50,14
C,9706,low_prior,6,19,ai,Mia is a nun,7.745383333333334,reveal,reveal,mia,0.07999999999999996,block1,Yes,NA,English,50,15
C,12724,high_prior,6,20,ai,Emily has been saving for a year,7.745383333333334,know,know,emily,1,block1,Yes,NA,English,50,16
C,8388,high_prior,6,21,ai,Danny loves cake,7.745383333333334,say,say,danny,0.08999999999999997,block1,Yes,NA,English,50,17
C,6954,low_prior,6,22,ai,Josie doesn't have a passport,7.745383333333334,be_right,be_right,josie,0.010000000000000009,block1,Yes,NA,English,50,18
MC,5668,NA,6,23,ai,Many children like ice cream,7.745383333333334,MC,MC,kids,0,block1,Yes,NA,English,50,19
C,10610,low_prior,6,24,ai,Frank is allergic to cats,7.745383333333334,suggest,suggest,frank,0.08999999999999997,block1,Yes,NA,English,50,20
MC,3564,NA,6,25,ai,Muffins are sold at the bakery,7.745383333333334,MC,MC,muffins,0,block1,Yes,NA,English,50,21
C,12412,low_prior,6,26,ai,Jon lives 10 miles away from work,7.745383333333334,discover,discover,jon,0.27,block1,Yes,NA,English,50,22
C,11869,high_prior,6,27,ai,Mary is taking a prenatal yoga class,7.745383333333334,confess,confess,mary,1,block1,Yes,NA,English,50,23
C,6772,high_prior,6,28,ai,Jayden's car is in the shop,7.745383333333334,see,see,jayden,0.79,block1,Yes,NA,English,50,24
C,6596,high_prior,6,29,ai,Isabella is from Argentina,7.745383333333334,demonstrate,demonstrate,isabella,0.35,block1,Yes,NA,English,50,25
C,12565,low_prior,6,30,ai,Julian is German,7.745383333333334,think,think,julian,0.43999999999999995,block1,Yes,NA,English,50,26
C,14359,low_prior,6,32,projective,Josie doesn't have a passport,7.745383333333334,be_right,be_right,josie,0,block2,Yes,NA,English,50,27
C,7939,high_prior,6,33,projective,Danny loves cake,7.745383333333334,say,say,danny,0,block2,Yes,NA,English,50,28
MC,5411,NA,6,34,projective,Garages are used to store cars and other things,7.745383333333334,MC,MC,garage,0,block2,Yes,NA,English,50,29
C,6483,low_prior,6,35,projective,Mia is a nun,7.745383333333334,reveal,reveal,mia,0.16,block2,Yes,NA,English,50,30
C,7776,low_prior,6,36,projective,Jon lives 10 miles away from work,7.745383333333334,discover,discover,jon,0.43,block2,Yes,NA,English,50,31
C,6535,high_prior,6,37,projective,Sophia is a hipster,7.745383333333334,prove,prove,sophia,0.37,block2,Yes,NA,English,50,32
C,6717,low_prior,6,38,projective,Frank is allergic to cats,7.745383333333334,suggest,suggest,frank,0,block2,Yes,NA,English,50,33
C,8351,high_prior,6,39,projective,Emma is in law school,7.745383333333334,admit,admit,emma,0.4,block2,Yes,NA,English,50,34
C,5948,low_prior,6,40,projective,Josh is a 75-year old man,7.745383333333334,confirm,confirm,josh,0,block2,Yes,NA,English,50,35
C,9077,low_prior,6,41,projective,Julian is German,7.745383333333334,think,think,julian,0.11,block2,Yes,NA,English,50,36
C,6386,high_prior,6,42,projective,Grace loves her sister,7.745383333333334,pretend,pretend,grace,0,block2,Yes,NA,English,50,37
C,6947,low_prior,6,43,projective,Olivia has two small children,7.745383333333334,establish,establish,olivia,0.11,block2,Yes,NA,English,50,38
C,10066,high_prior,6,44,projective,Emily has been saving for a year,7.745383333333334,know,know,emily,0.9,block2,Yes,NA,English,50,39
C,5647,low_prior,6,45,projective,Charley lives in Korea,7.745383333333334,hear,hear,charley,0.06,block2,Yes,NA,English,50,40
MC,5413,NA,6,46,projective,Many children like ice cream,7.745383333333334,MC,MC,kids,0,block2,Yes,NA,English,50,41
C,11730,high_prior,6,47,projective,Isabella is from Argentina,7.745383333333334,demonstrate,demonstrate,isabella,0.25,block2,Yes,NA,English,50,42
MC,4072,NA,6,48,projective,Ballet is a type of dance,7.745383333333334,MC,MC,ballet,0,block2,Yes,NA,English,50,43
C,10246,high_prior,6,49,projective,Mary is taking a prenatal yoga class,7.745383333333334,confess,confess,mary,1,block2,Yes,NA,English,50,44
C,6088,high_prior,6,50,projective,Jayden's car is in the shop,7.745383333333334,see,see,jayden,0.92,block2,Yes,NA,English,50,45
C,6219,low_prior,6,51,projective,Tony has been sober for 20 years,7.745383333333334,acknowledge,acknowledge,tony,0,block2,Yes,NA,English,50,46
C,8158,low_prior,6,52,projective,Owen lives in New Orleans,7.745383333333334,be_annoyed,be_annoyed,owen,0.73,block2,Yes,NA,English,50,47
MC,4734,NA,6,53,projective,Hats are worn on the head,7.745383333333334,MC,MC,hat,0,block2,Yes,NA,English,50,48
C,8508,high_prior,6,54,projective,Zoe is a math major,7.745383333333334,inform,inform,zoe,0.95,block2,Yes,NA,English,50,49
MC,4165,NA,6,55,projective,Muffins are sold at the bakery,7.745383333333334,MC,MC,muffins,0,block2,Yes,NA,English,50,50
MC,5027,NA,6,56,projective,Pizza is sold at the pizzeria,7.745383333333334,MC,MC,pizza,0,block2,Yes,NA,English,50,51
C,7170,high_prior,6,57,projective,Jackson is training for a marathon,7.745383333333334,announce,announce,jackson,0.44,block2,Yes,NA,English,50,52
MC,15621,NA,7,5,ai,Many children like ice cream,21.7604,MC,MC,kids,0.020000000000000018,block1,Yes,NA,English,49,1
MC,13430,NA,7,6,ai,Ballet is a type of dance,21.7604,MC,MC,ballet,0.010000000000000009,block1,Yes,NA,English,49,2
C,18031,low_prior,7,7,ai,Isabella is a vegetarian,21.7604,say,say,isabella,0.29000000000000004,block1,Yes,NA,English,49,3
C,17366,high_prior,7,8,ai,Julian is Cuban,21.7604,know,know,julian,1,block1,Yes,NA,English,49,4
C,15559,high_prior,7,9,ai,Grace loves her sister,21.7604,demonstrate,demonstrate,grace,1,block1,Yes,NA,English,49,5
C,28974,low_prior,7,10,ai,Jayden doesn't have a driver's license,21.7604,admit,admit,jayden,0.98,block1,Yes,NA,English,49,6
C,52948,low_prior,7,11,ai,Mia is a nun,21.7604,confirm,confirm,mia,0.6799999999999999,block1,Yes,NA,English,49,7
C,8520,high_prior,7,12,ai,Zoe is a math major,21.7604,be_annoyed,be_annoyed,zoe,0.98,block1,Yes,NA,English,49,8
C,8031,low_prior,7,13,ai,Danny is a diabetic,21.7604,pretend,pretend,danny,0.98,block1,Yes,NA,English,49,9
C,20014,low_prior,7,14,ai,Sophia is a high end fashion model,21.7604,discover,discover,sophia,1,block1,Yes,NA,English,49,10
C,18918,low_prior,7,15,ai,Emily never has any money,21.7604,be_right,be_right,emily,0,block1,Yes,NA,English,49,11
C,17199,high_prior,7,16,ai,Charley lives in Mexico,21.7604,suggest,suggest,charley,0.13,block1,Yes,NA,English,49,12
C,16247,low_prior,7,17,ai,Olivia has two small children,21.7604,acknowledge,acknowledge,olivia,1,block1,Yes,NA,English,49,13
C,162662,low_prior,7,18,ai,Mary is a middle school student,21.7604,inform,inform,mary,0.84,block1,Yes,NA,English,49,14
MC,128399,NA,7,19,ai,Pizza is sold at the pizzeria,21.7604,MC,MC,pizza,0.010000000000000009,block1,Yes,NA,English,49,15
C,16663,high_prior,7,20,ai,Jon lives 2 blocks away from work,21.7604,announce,announce,jon,0.24,block1,Yes,NA,English,49,16
C,12511,high_prior,7,21,ai,Josie loves France,21.7604,reveal,reveal,josie,0.7,block1,Yes,NA,English,49,17
C,12910,low_prior,7,22,ai,Emma is in first grade,21.7604,establish,establish,emma,0,block1,Yes,NA,English,49,18
C,38077,high_prior,7,23,ai,Tony really likes to party with his friends,21.7604,hear,hear,tony,0.47,block1,Yes,NA,English,49,19
MC,11912,NA,7,24,ai,Muffins are sold at the bakery,21.7604,MC,MC,muffins,0.010000000000000009,block1,Yes,NA,English,49,20
MC,9576,NA,7,25,ai,Garages are used to store cars and other things,21.7604,MC,MC,garage,0,block1,Yes,NA,English,49,21
MC,6424,NA,7,26,ai,Hats are worn on the head,21.7604,MC,MC,hat,0,block1,Yes,NA,English,49,22
C,13078,high_prior,7,27,ai,Jackson is training for a marathon,21.7604,think,think,jackson,0.89,block1,Yes,NA,English,49,23
C,12415,high_prior,7,28,ai,Frank has always wanted a pet,21.7604,prove,prove,frank,0.32999999999999996,block1,Yes,NA,English,49,24
C,8719,high_prior,7,29,ai,Josh is a 5-year old boy,21.7604,see,see,josh,1,block1,Yes,NA,English,49,25
C,24879,low_prior,7,30,ai,Owen lives in New Orleans,21.7604,confess,confess,owen,0.8,block1,Yes,NA,English,49,26
MC,7061,NA,7,32,projective,Hats are worn on the head,21.7604,MC,MC,hat,0,block2,Yes,NA,English,49,27
MC,4798,NA,7,33,projective,Garages are used to store cars and other things,21.7604,MC,MC,garage,0,block2,Yes,NA,English,49,28
MC,4567,NA,7,34,projective,Many children like ice cream,21.7604,MC,MC,kids,0,block2,Yes,NA,English,49,29
MC,4136,NA,7,35,projective,Muffins are sold at the bakery,21.7604,MC,MC,muffins,0,block2,Yes,NA,English,49,30
C,9302,high_prior,7,36,projective,Jon lives 2 blocks away from work,21.7604,announce,announce,jon,0.22,block2,Yes,NA,English,49,31
C,6567,low_prior,7,37,projective,Danny is a diabetic,21.7604,pretend,pretend,danny,0.01,block2,Yes,NA,English,49,32
C,8295,low_prior,7,38,projective,Mia is a nun,21.7604,confirm,confirm,mia,0.26,block2,Yes,NA,English,49,33
C,7287,high_prior,7,39,projective,Tony really likes to party with his friends,21.7604,hear,hear,tony,0.97,block2,Yes,NA,English,49,34
C,57580,low_prior,7,40,projective,Sophia is a high end fashion model,21.7604,discover,discover,sophia,0.99,block2,Yes,NA,English,49,35
C,7672,high_prior,7,41,projective,Frank has always wanted a pet,21.7604,prove,prove,frank,0.36,block2,Yes,NA,English,49,36
C,23374,low_prior,7,42,projective,Olivia has two small children,21.7604,acknowledge,acknowledge,olivia,0.89,block2,Yes,NA,English,49,37
C,84323,high_prior,7,43,projective,Charley lives in Mexico,21.7604,suggest,suggest,charley,0.3,block2,Yes,NA,English,49,38
MC,32814,NA,7,44,projective,Pizza is sold at the pizzeria,21.7604,MC,MC,pizza,0.01,block2,Yes,NA,English,49,39
C,27638,high_prior,7,45,projective,Josh is a 5-year old boy,21.7604,see,see,josh,0.99,block2,Yes,NA,English,49,40
C,7391,low_prior,7,46,projective,Emma is in first grade,21.7604,establish,establish,emma,0.02,block2,Yes,NA,English,49,41
C,7671,low_prior,7,47,projective,Mary is a middle school student,21.7604,inform,inform,mary,0.97,block2,Yes,NA,English,49,42
C,6063,high_prior,7,48,projective,Josie loves France,21.7604,reveal,reveal,josie,0.99,block2,Yes,NA,English,49,43
C,6336,low_prior,7,49,projective,Emily never has any money,21.7604,be_right,be_right,emily,0.02,block2,Yes,NA,English,49,44
C,37630,high_prior,7,50,projective,Grace loves her sister,21.7604,demonstrate,demonstrate,grace,0.22,block2,Yes,NA,English,49,45
C,8639,low_prior,7,51,projective,Isabella is a vegetarian,21.7604,say,say,isabella,0.09,block2,Yes,NA,English,49,46
C,5247,low_prior,7,52,projective,Owen lives in New Orleans,21.7604,confess,confess,owen,0.89,block2,Yes,NA,English,49,47
C,7120,high_prior,7,53,projective,Zoe is a math major,21.7604,be_annoyed,be_annoyed,zoe,0.85,block2,Yes,NA,English,49,48
C,31077,high_prior,7,54,projective,Jackson is training for a marathon,21.7604,think,think,jackson,0.11,block2,Yes,NA,English,49,49
C,75074,high_prior,7,55,projective,Julian is Cuban,21.7604,know,know,julian,1,block2,Yes,NA,English,49,50
MC,5071,NA,7,56,projective,Ballet is a type of dance,21.7604,MC,MC,ballet,0,block2,Yes,NA,English,49,51
C,16168,low_prior,7,57,projective,Jayden doesn't have a driver's license,21.7604,admit,admit,jayden,0.9,block2,Yes,NA,English,49,52
C,18273,low_prior,8,5,ai,Emily never has any money,7.8686,be_right,be_right,emily,0.08999999999999997,block1,Yes,no comment,english,26,1
C,11223,low_prior,8,6,ai,Grace hates her sister,7.8686,announce,announce,grace,0.040000000000000036,block1,Yes,no comment,english,26,2
C,9923,high_prior,8,7,ai,Emma is in law school,7.8686,prove,prove,emma,0.8200000000000001,block1,Yes,no comment,english,26,3
C,7401,high_prior,8,8,ai,Isabella is from Argentina,7.8686,say,say,isabella,0.040000000000000036,block1,Yes,no comment,english,26,4
MC,9616,NA,8,9,ai,Many children like ice cream,7.8686,MC,MC,kids,0.020000000000000018,block1,Yes,no comment,english,26,5
C,7147,high_prior,8,10,ai,Julian is Cuban,7.8686,suggest,suggest,julian,0,block1,Yes,no comment,english,26,6
MC,6355,NA,8,11,ai,Muffins are sold at the bakery,7.8686,MC,MC,muffins,0.020000000000000018,block1,Yes,no comment,english,26,7
C,7205,low_prior,8,12,ai,Olivia has two small children,7.8686,acknowledge,acknowledge,olivia,0.020000000000000018,block1,Yes,no comment,english,26,8
C,8180,high_prior,8,13,ai,Mary is taking a prenatal yoga class,7.8686,demonstrate,demonstrate,mary,0.45999999999999996,block1,Yes,no comment,english,26,9
C,5231,high_prior,8,14,ai,Jayden's car is in the shop,7.8686,think,think,jayden,0.010000000000000009,block1,Yes,no comment,english,26,10
C,14082,low_prior,8,15,ai,Tony has been sober for 20 years,7.8686,be_annoyed,be_annoyed,tony,0.96,block1,Yes,no comment,english,26,11
MC,6854,NA,8,16,ai,Ballet is a type of dance,7.8686,MC,MC,ballet,0.040000000000000036,block1,Yes,no comment,english,26,12
C,6754,low_prior,8,17,ai,Owen lives in New Orleans,7.8686,establish,establish,owen,0.050000000000000044,block1,Yes,no comment,english,26,13
C,8191,low_prior,8,18,ai,Sophia is a high end fashion model,7.8686,know,know,sophia,0.97,block1,Yes,no comment,english,26,14
C,10682,high_prior,8,19,ai,Jon lives 2 blocks away from work,7.8686,inform,inform,jon,0.99,block1,Yes,no comment,english,26,15
C,8509,low_prior,8,20,ai,Frank is allergic to cats,7.8686,pretend,pretend,frank,0.95,block1,Yes,no comment,english,26,16
C,10344,high_prior,8,21,ai,Josh is a 5-year old boy,7.8686,hear,hear,josh,0.98,block1,Yes,no comment,english,26,17
MC,5244,NA,8,22,ai,Hats are worn on the head,7.8686,MC,MC,hat,0.020000000000000018,block1,Yes,no comment,english,26,18
C,8556,low_prior,8,23,ai,Zoe is 5 years old,7.8686,confess,confess,zoe,0.96,block1,Yes,no comment,english,26,19
MC,4481,NA,8,24,ai,Garages are used to store cars and other things,7.8686,MC,MC,garage,0.030000000000000027,block1,Yes,no comment,english,26,20
C,7636,low_prior,8,25,ai,Charley lives in Korea,7.8686,admit,admit,charley,0.95,block1,Yes,no comment,english,26,21
C,6081,high_prior,8,26,ai,Jackson is training for a marathon,7.8686,see,see,jackson,0.98,block1,Yes,no comment,english,26,22
C,4428,high_prior,8,27,ai,Danny loves cake,7.8686,discover,discover,danny,0.97,block1,Yes,no comment,english,26,23
C,7146,low_prior,8,28,ai,Mia is a nun,7.8686,confirm,confirm,mia,0.97,block1,Yes,no comment,english,26,24
C,6108,high_prior,8,29,ai,Josie loves France,7.8686,reveal,reveal,josie,0.98,block1,Yes,no comment,english,26,25
MC,4328,NA,8,30,ai,Pizza is sold at the pizzeria,7.8686,MC,MC,pizza,0.030000000000000027,block1,Yes,no comment,english,26,26
MC,11597,NA,8,32,projective,Garages are used to store cars and other things,7.8686,MC,MC,garage,0,block2,Yes,no comment,english,26,27
C,9982,high_prior,8,33,projective,Danny loves cake,7.8686,discover,discover,danny,0.98,block2,Yes,no comment,english,26,28
MC,6197,NA,8,34,projective,Muffins are sold at the bakery,7.8686,MC,MC,muffins,0.07,block2,Yes,no comment,english,26,29
C,8722,high_prior,8,35,projective,Josie loves France,7.8686,reveal,reveal,josie,0.08,block2,Yes,no comment,english,26,30
C,7099,low_prior,8,36,projective,Tony has been sober for 20 years,7.8686,be_annoyed,be_annoyed,tony,0.98,block2,Yes,no comment,english,26,31
C,6666,low_prior,8,37,projective,Frank is allergic to cats,7.8686,pretend,pretend,frank,0.9,block2,Yes,no comment,english,26,32
C,8941,low_prior,8,38,projective,Grace hates her sister,7.8686,announce,announce,grace,1,block2,Yes,no comment,english,26,33
C,6969,high_prior,8,39,projective,Julian is Cuban,7.8686,suggest,suggest,julian,0.08,block2,Yes,no comment,english,26,34
C,9516,low_prior,8,40,projective,Zoe is 5 years old,7.8686,confess,confess,zoe,0.97,block2,Yes,no comment,english,26,35
MC,6739,NA,8,41,projective,Hats are worn on the head,7.8686,MC,MC,hat,0.04,block2,Yes,no comment,english,26,36
C,6225,low_prior,8,42,projective,Sophia is a high end fashion model,7.8686,know,know,sophia,0.97,block2,Yes,no comment,english,26,37
MC,6076,NA,8,43,projective,Ballet is a type of dance,7.8686,MC,MC,ballet,0.03,block2,Yes,no comment,english,26,38
C,6503,high_prior,8,44,projective,Mary is taking a prenatal yoga class,7.8686,demonstrate,demonstrate,mary,0.49,block2,Yes,no comment,english,26,39
C,7320,high_prior,8,45,projective,Josh is a 5-year old boy,7.8686,hear,hear,josh,0.94,block2,Yes,no comment,english,26,40
C,7605,high_prior,8,46,projective,Jon lives 2 blocks away from work,7.8686,inform,inform,jon,1,block2,Yes,no comment,english,26,41
C,9186,high_prior,8,47,projective,Isabella is from Argentina,7.8686,say,say,isabella,0.95,block2,Yes,no comment,english,26,42
C,10401,low_prior,8,48,projective,Mia is a nun,7.8686,confirm,confirm,mia,0.95,block2,Yes,no comment,english,26,43
C,8216,low_prior,8,49,projective,Owen lives in New Orleans,7.8686,establish,establish,owen,0.03,block2,Yes,no comment,english,26,44
C,6819,low_prior,8,50,projective,Emily never has any money,7.8686,be_right,be_right,emily,0.03,block2,Yes,no comment,english,26,45
C,9245,high_prior,8,51,projective,Jayden's car is in the shop,7.8686,think,think,jayden,0.03,block2,Yes,no comment,english,26,46
C,6126,low_prior,8,52,projective,Olivia has two small children,7.8686,acknowledge,acknowledge,olivia,0.03,block2,Yes,no comment,english,26,47
C,7625,low_prior,8,53,projective,Charley lives in Korea,7.8686,admit,admit,charley,0.02,block2,Yes,no comment,english,26,48
C,5628,high_prior,8,54,projective,Emma is in law school,7.8686,prove,prove,emma,0.03,block2,Yes,no comment,english,26,49
MC,5678,NA,8,55,projective,Many children like ice cream,7.8686,MC,MC,kids,0,block2,Yes,no comment,english,26,50
MC,4589,NA,8,56,projective,Pizza is sold at the pizzeria,7.8686,MC,MC,pizza,0.09,block2,Yes,no comment,english,26,51
C,5112,high_prior,8,57,projective,Jackson is training for a marathon,7.8686,see,see,jackson,0.03,block2,Yes,no comment,english,26,52
MC,24200,NA,9,5,projective,Ballet is a type of dance,4.9432833333333335,MC,MC,ballet,0.79,block1,Yes,good,english,23,1
C,4369,low_prior,9,6,projective,Sophia is a high end fashion model,4.9432833333333335,announce,announce,sophia,0.75,block1,Yes,good,english,23,2
C,24731,low_prior,9,7,projective,Zoe is 5 years old,4.9432833333333335,suggest,suggest,zoe,0.96,block1,Yes,good,english,23,3
C,9912,low_prior,9,8,projective,Jon lives 10 miles away from work,4.9432833333333335,admit,admit,jon,0.82,block1,Yes,good,english,23,4
MC,7616,NA,9,9,projective,Muffins are sold at the bakery,4.9432833333333335,MC,MC,muffins,0.64,block1,Yes,good,english,23,5
C,4505,low_prior,9,10,projective,Owen lives in New Orleans,4.9432833333333335,prove,prove,owen,0.68,block1,Yes,good,english,23,6
C,8343,high_prior,9,11,projective,Olivia works the third shift,4.9432833333333335,acknowledge,acknowledge,olivia,0.73,block1,Yes,good,english,23,7
MC,4844,NA,9,12,projective,Pizza is sold at the pizzeria,4.9432833333333335,MC,MC,pizza,0.43,block1,Yes,good,english,23,8
C,5467,low_prior,9,13,projective,Josh is a 75-year old man,4.9432833333333335,hear,hear,josh,0.59,block1,Yes,good,english,23,9
C,4514,low_prior,9,14,projective,Julian is German,4.9432833333333335,pretend,pretend,julian,0.66,block1,Yes,good,english,23,10
C,3345,high_prior,9,15,projective,Josie loves France,4.9432833333333335,inform,inform,josie,0.69,block1,Yes,good,english,23,11
C,4083,low_prior,9,16,projective,Frank is allergic to cats,4.9432833333333335,confess,confess,frank,0.78,block1,Yes,good,english,23,12
C,4012,high_prior,9,17,projective,Danny loves cake,4.9432833333333335,say,say,danny,0.77,block1,Yes,good,english,23,13
C,3300,high_prior,9,18,projective,Charley lives in Mexico,4.9432833333333335,see,see,charley,0.63,block1,Yes,good,english,23,14
MC,2491,NA,9,19,projective,Hats are worn on the head,4.9432833333333335,MC,MC,hat,0.75,block1,Yes,good,english,23,15
C,3253,low_prior,9,20,projective,Jackson is obese,4.9432833333333335,think,think,jackson,0.66,block1,Yes,good,english,23,16
C,3407,low_prior,9,21,projective,Tony has been sober for 20 years,4.9432833333333335,be_right,be_right,tony,0.8,block1,Yes,good,english,23,17
MC,6338,NA,9,22,projective,Many children like ice cream,4.9432833333333335,MC,MC,kids,0.78,block1,Yes,good,english,23,18
C,14640,high_prior,9,23,projective,Mia is a college student,4.9432833333333335,be_annoyed,be_annoyed,mia,0.75,block1,Yes,good,english,23,19
C,2133,high_prior,9,24,projective,Jayden's car is in the shop,4.9432833333333335,discover,discover,jayden,0.84,block1,Yes,good,english,23,20
C,1986,low_prior,9,25,projective,Grace hates her sister,4.9432833333333335,demonstrate,demonstrate,grace,0.79,block1,Yes,good,english,23,21
C,3222,high_prior,9,26,projective,Mary is taking a prenatal yoga class,4.9432833333333335,reveal,reveal,mary,0.85,block1,Yes,good,english,23,22
MC,2498,NA,9,27,projective,Garages are used to store cars and other things,4.9432833333333335,MC,MC,garage,0.65,block1,Yes,good,english,23,23
C,2479,high_prior,9,28,projective,Emily has been saving for a year,4.9432833333333335,know,know,emily,0.72,block1,Yes,good,english,23,24
C,4336,high_prior,9,29,projective,Isabella is from Argentina,4.9432833333333335,confirm,confirm,isabella,0.71,block1,Yes,good,english,23,25
C,3728,high_prior,9,30,projective,Emma is in law school,4.9432833333333335,establish,establish,emma,0.8,block1,Yes,good,english,23,26
C,3711,high_prior,9,32,ai,Emma is in law school,4.9432833333333335,establish,establish,emma,0.28,block2,Yes,good,english,23,27
C,2567,high_prior,9,33,ai,Josie loves France,4.9432833333333335,inform,inform,josie,0.39,block2,Yes,good,english,23,28
C,2191,low_prior,9,34,ai,Owen lives in New Orleans,4.9432833333333335,prove,prove,owen,0.21999999999999997,block2,Yes,good,english,23,29
C,2282,high_prior,9,35,ai,Danny loves cake,4.9432833333333335,say,say,danny,0.4,block2,Yes,good,english,23,30
MC,2756,NA,9,36,ai,Pizza is sold at the pizzeria,4.9432833333333335,MC,MC,pizza,0.24,block2,Yes,good,english,23,31
C,2470,low_prior,9,37,ai,Zoe is 5 years old,4.9432833333333335,suggest,suggest,zoe,0.21999999999999997,block2,Yes,good,english,23,32
C,2742,high_prior,9,38,ai,Charley lives in Mexico,4.9432833333333335,see,see,charley,0.31999999999999995,block2,Yes,good,english,23,33
C,3166,low_prior,9,39,ai,Tony has been sober for 20 years,4.9432833333333335,be_right,be_right,tony,0.22999999999999998,block2,Yes,good,english,23,34
C,3083,low_prior,9,40,ai,Grace hates her sister,4.9432833333333335,demonstrate,demonstrate,grace,0.39,block2,Yes,good,english,23,35
MC,2765,NA,9,41,ai,Hats are worn on the head,4.9432833333333335,MC,MC,hat,0.27,block2,Yes,good,english,23,36
C,2000,high_prior,9,42,ai,Mary is taking a prenatal yoga class,4.9432833333333335,reveal,reveal,mary,0.31000000000000005,block2,Yes,good,english,23,37
MC,3208,NA,9,43,ai,Many children like ice cream,4.9432833333333335,MC,MC,kids,0.18999999999999995,block2,Yes,good,english,23,38
MC,4194,NA,9,44,ai,Muffins are sold at the bakery,4.9432833333333335,MC,MC,muffins,0.31000000000000005,block2,Yes,good,english,23,39
C,3931,low_prior,9,45,ai,Julian is German,4.9432833333333335,pretend,pretend,julian,0.18999999999999995,block2,Yes,good,english,23,40
C,2115,high_prior,9,46,ai,Emily has been saving for a year,4.9432833333333335,know,know,emily,0.29000000000000004,block2,Yes,good,english,23,41
MC,2560,NA,9,47,ai,Garages are used to store cars and other things,4.9432833333333335,MC,MC,garage,0.16000000000000003,block2,Yes,good,english,23,42
C,2147,high_prior,9,48,ai,Olivia works the third shift,4.9432833333333335,acknowledge,acknowledge,olivia,0.31000000000000005,block2,Yes,good,english,23,43
C,4541,low_prior,9,49,ai,Josh is a 75-year old man,4.9432833333333335,hear,hear,josh,0.22999999999999998,block2,Yes,good,english,23,44
C,4655,high_prior,9,50,ai,Isabella is from Argentina,4.9432833333333335,confirm,confirm,isabella,0.27,block2,Yes,good,english,23,45
C,1903,low_prior,9,51,ai,Sophia is a high end fashion model,4.9432833333333335,announce,announce,sophia,0.24,block2,Yes,good,english,23,46
C,1793,low_prior,9,52,ai,Jon lives 10 miles away from work,4.9432833333333335,admit,admit,jon,0.31000000000000005,block2,Yes,good,english,23,47
MC,1919,NA,9,53,ai,Ballet is a type of dance,4.9432833333333335,MC,MC,ballet,0.17000000000000004,block2,Yes,good,english,23,48
C,1848,high_prior,9,54,ai,Mia is a college student,4.9432833333333335,be_annoyed,be_annoyed,mia,0.31999999999999995,block2,Yes,good,english,23,49
C,1784,high_prior,9,55,ai,Jayden's car is in the shop,4.9432833333333335,discover,discover,jayden,0.26,block2,Yes,good,english,23,50
C,2072,low_prior,9,56,ai,Frank is allergic to cats,4.9432833333333335,confess,confess,frank,0.19999999999999996,block2,Yes,good,english,23,51
C,1930,low_prior,9,57,ai,Jackson is obese,4.9432833333333335,think,think,jackson,0.33999999999999997,block2,Yes,good,english,23,52
C,12366,low_prior,10,5,ai,Mia is a nun,7.6547,acknowledge,acknowledge,mia,0.9299999999999999,block1,Yes,NA,english,41,1
MC,7885,NA,10,6,ai,Muffins are sold at the bakery,7.6547,MC,MC,muffins,0,block1,Yes,NA,english,41,2
MC,9189,NA,10,7,ai,Many children like ice cream,7.6547,MC,MC,kids,0,block1,Yes,NA,english,41,3
C,12401,low_prior,10,8,ai,Isabella is a vegetarian,7.6547,demonstrate,demonstrate,isabella,0.6,block1,Yes,NA,english,41,4
C,10058,high_prior,10,9,ai,Emma is in law school,7.6547,hear,hear,emma,1,block1,Yes,NA,english,41,5
C,9390,low_prior,10,10,ai,Frank is allergic to cats,7.6547,think,think,frank,1,block1,Yes,NA,english,41,6
MC,6168,NA,10,11,ai,Hats are worn on the head,7.6547,MC,MC,hat,0,block1,Yes,NA,english,41,7
C,12469,high_prior,10,12,ai,Tony really likes to party with his friends,7.6547,say,say,tony,0.18000000000000005,block1,Yes,NA,english,41,8
C,8396,low_prior,10,13,ai,Josie doesn't have a passport,7.6547,announce,announce,josie,0.16000000000000003,block1,Yes,NA,english,41,9
C,9046,high_prior,10,14,ai,Grace loves her sister,7.6547,inform,inform,grace,0.99,block1,Yes,NA,english,41,10
C,7485,low_prior,10,15,ai,Jon lives 10 miles away from work,7.6547,establish,establish,jon,0.16000000000000003,block1,Yes,NA,english,41,11
C,8386,high_prior,10,16,ai,Julian is Cuban,7.6547,prove,prove,julian,0.39,block1,Yes,NA,english,41,12
C,5908,low_prior,10,17,ai,Jayden doesn't have a driver's license,7.6547,pretend,pretend,jayden,1,block1,Yes,NA,english,41,13
C,8292,low_prior,10,18,ai,Owen lives in New Orleans,7.6547,confirm,confirm,owen,0.13,block1,Yes,NA,english,41,14
MC,6895,NA,10,19,ai,Garages are used to store cars and other things,7.6547,MC,MC,garage,0,block1,Yes,NA,english,41,15
MC,6756,NA,10,20,ai,Ballet is a type of dance,7.6547,MC,MC,ballet,0,block1,Yes,NA,english,41,16
C,8632,high_prior,10,21,ai,Josh is a 5-year old boy,7.6547,discover,discover,josh,0.45999999999999996,block1,Yes,NA,english,41,17
MC,4559,NA,10,22,ai,Pizza is sold at the pizzeria,7.6547,MC,MC,pizza,0,block1,Yes,NA,english,41,18
C,9961,low_prior,10,23,ai,Emily never has any money,7.6547,reveal,reveal,emily,0.84,block1,Yes,NA,english,41,19
C,10005,high_prior,10,24,ai,Olivia works the third shift,7.6547,admit,admit,olivia,0.5800000000000001,block1,Yes,NA,english,41,20
C,8393,high_prior,10,25,ai,Charley lives in Mexico,7.6547,suggest,suggest,charley,0.41000000000000003,block1,Yes,NA,english,41,21
C,8682,high_prior,10,26,ai,Sophia is a hipster,7.6547,confess,confess,sophia,0.85,block1,Yes,NA,english,41,22
C,5266,high_prior,10,27,ai,Danny loves cake,7.6547,be_annoyed,be_annoyed,danny,1,block1,Yes,NA,english,41,23
C,7524,high_prior,10,28,ai,Mary is taking a prenatal yoga class,7.6547,be_right,be_right,mary,0,block1,Yes,NA,english,41,24
C,8497,low_prior,10,29,ai,Zoe is 5 years old,7.6547,see,see,zoe,0,block1,Yes,NA,english,41,25
C,5856,low_prior,10,30,ai,Jackson is obese,7.6547,know,know,jackson,1,block1,Yes,NA,english,41,26
C,10854,high_prior,10,32,projective,Olivia works the third shift,7.6547,admit,admit,olivia,0.38,block2,Yes,NA,english,41,27
C,7310,high_prior,10,33,projective,Charley lives in Mexico,7.6547,suggest,suggest,charley,0,block2,Yes,NA,english,41,28
MC,6160,NA,10,34,projective,Hats are worn on the head,7.6547,MC,MC,hat,0,block2,Yes,NA,english,41,29
C,6819,low_prior,10,35,projective,Isabella is a vegetarian,7.6547,demonstrate,demonstrate,isabella,0,block2,Yes,NA,english,41,30
C,6075,low_prior,10,36,projective,Frank is allergic to cats,7.6547,think,think,frank,0,block2,Yes,NA,english,41,31
MC,7138,NA,10,37,projective,Many children like ice cream,7.6547,MC,MC,kids,0,block2,Yes,NA,english,41,32
C,7183,low_prior,10,38,projective,Owen lives in New Orleans,7.6547,confirm,confirm,owen,0,block2,Yes,NA,english,41,33
MC,5888,NA,10,39,projective,Ballet is a type of dance,7.6547,MC,MC,ballet,0,block2,Yes,NA,english,41,34
C,8183,high_prior,10,40,projective,Sophia is a hipster,7.6547,confess,confess,sophia,0.24,block2,Yes,NA,english,41,35
C,8448,low_prior,10,41,projective,Jackson is obese,7.6547,know,know,jackson,0.8,block2,Yes,NA,english,41,36
C,7307,high_prior,10,42,projective,Mary is taking a prenatal yoga class,7.6547,be_right,be_right,mary,0,block2,Yes,NA,english,41,37
C,8215,low_prior,10,43,projective,Mia is a nun,7.6547,acknowledge,acknowledge,mia,0.59,block2,Yes,NA,english,41,38
MC,4513,NA,10,44,projective,Pizza is sold at the pizzeria,7.6547,MC,MC,pizza,0,block2,Yes,NA,english,41,39
C,9271,low_prior,10,45,projective,Josie doesn't have a passport,7.6547,announce,announce,josie,0,block2,Yes,NA,english,41,40
C,9656,high_prior,10,46,projective,Emma is in law school,7.6547,hear,hear,emma,0.34,block2,Yes,NA,english,41,41
C,10586,high_prior,10,47,projective,Grace loves her sister,7.6547,inform,inform,grace,0.86,block2,Yes,NA,english,41,42
C,9678,high_prior,10,48,projective,Josh is a 5-year old boy,7.6547,discover,discover,josh,0.42,block2,Yes,NA,english,41,43
C,4763,low_prior,10,49,projective,Zoe is 5 years old,7.6547,see,see,zoe,0,block2,Yes,NA,english,41,44
C,5990,low_prior,10,50,projective,Jon lives 10 miles away from work,7.6547,establish,establish,jon,0,block2,Yes,NA,english,41,45
MC,4249,NA,10,51,projective,Garages are used to store cars and other things,7.6547,MC,MC,garage,0,block2,Yes,NA,english,41,46
C,4488,high_prior,10,52,projective,Tony really likes to party with his friends,7.6547,say,say,tony,0,block2,Yes,NA,english,41,47
C,4831,high_prior,10,53,projective,Julian is Cuban,7.6547,prove,prove,julian,0,block2,Yes,NA,english,41,48
C,6393,high_prior,10,54,projective,Danny loves cake,7.6547,be_annoyed,be_annoyed,danny,1,block2,Yes,NA,english,41,49
C,11018,low_prior,10,55,projective,Emily never has any money,7.6547,reveal,reveal,emily,0.29,block2,Yes,NA,english,41,50
C,5744,low_prior,10,56,projective,Jayden doesn't have a driver's license,7.6547,pretend,pretend,jayden,0,block2,Yes,NA,english,41,51
MC,3602,NA,10,57,projective,Muffins are sold at the bakery,7.6547,MC,MC,muffins,0,block2,Yes,NA,english,41,52
C,20878,high_prior,11,5,projective,Jackson is training for a marathon,10.7488,establish,establish,jackson,0.19,block1,Yes,I hope I understood what you were asking.,English,63,1
C,11088,low_prior,11,6,projective,Olivia has two small children,10.7488,suggest,suggest,olivia,0.07,block1,Yes,I hope I understood what you were asking.,English,63,2
C,9823,low_prior,11,7,projective,Zoe is 5 years old,10.7488,inform,inform,zoe,0.04,block1,Yes,I hope I understood what you were asking.,English,63,3
C,14128,high_prior,11,8,projective,Josh is a 5-year old boy,10.7488,know,know,josh,0.87,block1,Yes,I hope I understood what you were asking.,English,63,4
C,8809,low_prior,11,9,projective,Isabella is a vegetarian,10.7488,be_annoyed,be_annoyed,isabella,0.9,block1,Yes,I hope I understood what you were asking.,English,63,5
MC,11447,NA,11,10,projective,Garages are used to store cars and other things,10.7488,MC,MC,garage,0.07,block1,Yes,I hope I understood what you were asking.,English,63,6
C,8416,low_prior,11,11,projective,Tony has been sober for 20 years,10.7488,announce,announce,tony,0.11,block1,Yes,I hope I understood what you were asking.,English,63,7
C,9103,low_prior,11,12,projective,Josie doesn't have a passport,10.7488,demonstrate,demonstrate,josie,0.13,block1,Yes,I hope I understood what you were asking.,English,63,8
C,18152,high_prior,11,13,projective,Emily has been saving for a year,10.7488,reveal,reveal,emily,0.52,block1,Yes,I hope I understood what you were asking.,English,63,9
MC,8385,NA,11,14,projective,Muffins are sold at the bakery,10.7488,MC,MC,muffins,0.12,block1,Yes,I hope I understood what you were asking.,English,63,10
C,5999,low_prior,11,15,projective,Julian is German,10.7488,see,see,julian,0.13,block1,Yes,I hope I understood what you were asking.,English,63,11
MC,6728,NA,11,16,projective,Many children like ice cream,10.7488,MC,MC,kids,0.09,block1,Yes,I hope I understood what you were asking.,English,63,12
C,9335,low_prior,11,17,projective,Danny is a diabetic,10.7488,be_right,be_right,danny,0.13,block1,Yes,I hope I understood what you were asking.,English,63,13
C,10776,high_prior,11,18,projective,Charley lives in Mexico,10.7488,confess,confess,charley,0.49,block1,Yes,I hope I understood what you were asking.,English,63,14
C,14304,low_prior,11,19,projective,Emma is in first grade,10.7488,hear,hear,emma,0.09,block1,Yes,I hope I understood what you were asking.,English,63,15
C,11088,high_prior,11,20,projective,Grace loves her sister,10.7488,discover,discover,grace,0.64,block1,Yes,I hope I understood what you were asking.,English,63,16
C,8712,high_prior,11,21,projective,Owen lives in Chicago,10.7488,say,say,owen,0.62,block1,Yes,I hope I understood what you were asking.,English,63,17
C,12576,low_prior,11,22,projective,Mary is a middle school student,10.7488,pretend,pretend,mary,0.11,block1,Yes,I hope I understood what you were asking.,English,63,18
MC,10096,NA,11,23,projective,Ballet is a type of dance,10.7488,MC,MC,ballet,0.09,block1,Yes,I hope I understood what you were asking.,English,63,19
MC,9024,NA,11,24,projective,Pizza is sold at the pizzeria,10.7488,MC,MC,pizza,0.07,block1,Yes,I hope I understood what you were asking.,English,63,20
C,10704,high_prior,11,25,projective,Frank has always wanted a pet,10.7488,prove,prove,frank,0.11,block1,Yes,I hope I understood what you were asking.,English,63,21
C,9592,high_prior,11,26,projective,Mia is a college student,10.7488,think,think,mia,0.1,block1,Yes,I hope I understood what you were asking.,English,63,22
C,11495,high_prior,11,27,projective,Sophia is a hipster,10.7488,acknowledge,acknowledge,sophia,0.9,block1,Yes,I hope I understood what you were asking.,English,63,23
C,8481,low_prior,11,28,projective,Jayden doesn't have a driver's license,10.7488,confirm,confirm,jayden,0.06,block1,Yes,I hope I understood what you were asking.,English,63,24
C,7287,high_prior,11,29,projective,Jon lives 2 blocks away from work,10.7488,admit,admit,jon,0.66,block1,Yes,I hope I understood what you were asking.,English,63,25
MC,10824,NA,11,30,projective,Hats are worn on the head,10.7488,MC,MC,hat,0.08,block1,Yes,I hope I understood what you were asking.,English,63,26
C,12671,high_prior,11,32,ai,Jackson is training for a marathon,10.7488,establish,establish,jackson,0.13,block2,Yes,I hope I understood what you were asking.,English,63,27
MC,6919,NA,11,33,ai,Muffins are sold at the bakery,10.7488,MC,MC,muffins,0.08999999999999997,block2,Yes,I hope I understood what you were asking.,English,63,28
C,6320,low_prior,11,34,ai,Jayden doesn't have a driver's license,10.7488,confirm,confirm,jayden,0.10999999999999999,block2,Yes,I hope I understood what you were asking.,English,63,29
C,9159,low_prior,11,35,ai,Isabella is a vegetarian,10.7488,be_annoyed,be_annoyed,isabella,0.95,block2,Yes,I hope I understood what you were asking.,English,63,30
C,7744,high_prior,11,36,ai,Josh is a 5-year old boy,10.7488,know,know,josh,0.92,block2,Yes,I hope I understood what you were asking.,English,63,31
C,7928,low_prior,11,37,ai,Tony has been sober for 20 years,10.7488,announce,announce,tony,0.92,block2,Yes,I hope I understood what you were asking.,English,63,32
C,5879,low_prior,11,38,ai,Olivia has two small children,10.7488,suggest,suggest,olivia,0.94,block2,Yes,I hope I understood what you were asking.,English,63,33
C,10561,high_prior,11,39,ai,Charley lives in Mexico,10.7488,confess,confess,charley,0.95,block2,Yes,I hope I understood what you were asking.,English,63,34
C,9808,low_prior,11,40,ai,Josie doesn't have a passport,10.7488,demonstrate,demonstrate,josie,0.94,block2,Yes,I hope I understood what you were asking.,English,63,35
C,6760,high_prior,11,41,ai,Mia is a college student,10.7488,think,think,mia,0.9299999999999999,block2,Yes,I hope I understood what you were asking.,English,63,36
C,6575,low_prior,11,42,ai,Zoe is 5 years old,10.7488,inform,inform,zoe,0.9299999999999999,block2,Yes,I hope I understood what you were asking.,English,63,37
C,9833,high_prior,11,43,ai,Jon lives 2 blocks away from work,10.7488,admit,admit,jon,0.96,block2,Yes,I hope I understood what you were asking.,English,63,38
MC,9888,NA,11,44,ai,Many children like ice cream,10.7488,MC,MC,kids,0.06999999999999995,block2,Yes,I hope I understood what you were asking.,English,63,39
C,6896,high_prior,11,45,ai,Sophia is a hipster,10.7488,acknowledge,acknowledge,sophia,0.92,block2,Yes,I hope I understood what you were asking.,English,63,40
C,6391,low_prior,11,46,ai,Danny is a diabetic,10.7488,be_right,be_right,danny,0.07999999999999996,block2,Yes,I hope I understood what you were asking.,English,63,41
C,11800,high_prior,11,47,ai,Emily has been saving for a year,10.7488,reveal,reveal,emily,0.9299999999999999,block2,Yes,I hope I understood what you were asking.,English,63,42
C,13224,high_prior,11,48,ai,Owen lives in Chicago,10.7488,say,say,owen,0.92,block2,Yes,I hope I understood what you were asking.,English,63,43
MC,4320,NA,11,49,ai,Garages are used to store cars and other things,10.7488,MC,MC,garage,0.06000000000000005,block2,Yes,I hope I understood what you were asking.,English,63,44
C,10904,high_prior,11,50,ai,Frank has always wanted a pet,10.7488,prove,prove,frank,0.92,block2,Yes,I hope I understood what you were asking.,English,63,45
MC,4640,NA,11,51,ai,Hats are worn on the head,10.7488,MC,MC,hat,0.050000000000000044,block2,Yes,I hope I understood what you were asking.,English,63,46
C,9959,low_prior,11,52,ai,Julian is German,10.7488,see,see,julian,0.9299999999999999,block2,Yes,I hope I understood what you were asking.,English,63,47
MC,5225,NA,11,53,ai,Pizza is sold at the pizzeria,10.7488,MC,MC,pizza,0.040000000000000036,block2,Yes,I hope I understood what you were asking.,English,63,48
C,7847,low_prior,11,54,ai,Emma is in first grade,10.7488,hear,hear,emma,0.96,block2,Yes,I hope I understood what you were asking.,English,63,49
MC,3991,NA,11,55,ai,Ballet is a type of dance,10.7488,MC,MC,ballet,0.050000000000000044,block2,Yes,I hope I understood what you were asking.,English,63,50
C,8296,low_prior,11,56,ai,Mary is a middle school student,10.7488,pretend,pretend,mary,0.9299999999999999,block2,Yes,I hope I understood what you were asking.,English,63,51
C,6752,high_prior,11,57,ai,Grace loves her sister,10.7488,discover,discover,grace,0.9299999999999999,block2,Yes,I hope I understood what you were asking.,English,63,52
C,19436,high_prior,12,5,ai,Isabella is from Argentina,13.006283333333334,pretend,pretend,isabella,1,block1,Yes,NA,English,31,1
MC,7895,NA,12,6,ai,Hats are worn on the head,13.006283333333334,MC,MC,hat,0,block1,Yes,NA,English,31,2
C,12328,high_prior,12,7,ai,Sophia is a hipster,13.006283333333334,admit,admit,sophia,1,block1,Yes,NA,English,31,3
C,34800,high_prior,12,8,ai,Owen lives in Chicago,13.006283333333334,inform,inform,owen,1,block1,Yes,NA,English,31,4
C,22384,high_prior,12,9,ai,Tony really likes to party with his friends,13.006283333333334,know,know,tony,1,block1,Yes,NA,English,31,5
C,21674,high_prior,12,10,ai,Mary is taking a prenatal yoga class,13.006283333333334,demonstrate,demonstrate,mary,0.99,block1,Yes,NA,English,31,6
MC,12004,NA,12,11,ai,Many children like ice cream,13.006283333333334,MC,MC,kids,0.020000000000000018,block1,Yes,NA,English,31,7
MC,18895,NA,12,12,ai,Ballet is a type of dance,13.006283333333334,MC,MC,ballet,0.010000000000000009,block1,Yes,NA,English,31,8
C,17504,low_prior,12,13,ai,Charley lives in Korea,13.006283333333334,discover,discover,charley,1,block1,Yes,NA,English,31,9
C,13560,high_prior,12,14,ai,Josh is a 5-year old boy,13.006283333333334,confess,confess,josh,1,block1,Yes,NA,English,31,10
C,7067,low_prior,12,15,ai,Jon lives 10 miles away from work,13.006283333333334,announce,announce,jon,1,block1,Yes,NA,English,31,11
C,12725,low_prior,12,16,ai,Josie doesn't have a passport,13.006283333333334,confirm,confirm,josie,1,block1,Yes,NA,English,31,12
MC,20017,NA,12,17,ai,Garages are used to store cars and other things,13.006283333333334,MC,MC,garage,0,block1,Yes,NA,English,31,13
C,14681,high_prior,12,18,ai,Jackson is training for a marathon,13.006283333333334,prove,prove,jackson,1,block1,Yes,NA,English,31,14
C,10710,low_prior,12,19,ai,Julian is German,13.006283333333334,be_annoyed,be_annoyed,julian,1,block1,Yes,NA,English,31,15
C,6903,low_prior,12,20,ai,Frank is allergic to cats,13.006283333333334,think,think,frank,1,block1,Yes,NA,English,31,16
C,6447,low_prior,12,21,ai,Mia is a nun,13.006283333333334,say,say,mia,1,block1,Yes,NA,English,31,17
MC,6536,NA,12,22,ai,Muffins are sold at the bakery,13.006283333333334,MC,MC,muffins,0,block1,Yes,NA,English,31,18
C,5736,high_prior,12,23,ai,Olivia works the third shift,13.006283333333334,suggest,suggest,olivia,1,block1,Yes,NA,English,31,19
C,13095,low_prior,12,24,ai,Emma is in first grade,13.006283333333334,acknowledge,acknowledge,emma,0.97,block1,Yes,NA,English,31,20
MC,4400,NA,12,25,ai,Pizza is sold at the pizzeria,13.006283333333334,MC,MC,pizza,0.010000000000000009,block1,Yes,NA,English,31,21
C,8544,high_prior,12,26,ai,Danny loves cake,13.006283333333334,establish,establish,danny,1,block1,Yes,NA,English,31,22
C,11374,high_prior,12,27,ai,Jayden's car is in the shop,13.006283333333334,be_right,be_right,jayden,0.31999999999999995,block1,Yes,NA,English,31,23
C,7257,low_prior,12,28,ai,Zoe is 5 years old,13.006283333333334,hear,hear,zoe,1,block1,Yes,NA,English,31,24
C,7583,low_prior,12,29,ai,Emily never has any money,13.006283333333334,reveal,reveal,emily,1,block1,Yes,NA,English,31,25
C,33720,low_prior,12,30,ai,Grace hates her sister,13.006283333333334,see,see,grace,0.97,block1,Yes,NA,English,31,26
C,11318,high_prior,12,32,projective,Sophia is a hipster,13.006283333333334,admit,admit,sophia,0.67,block2,Yes,NA,English,31,27
C,3811,low_prior,12,33,projective,Frank is allergic to cats,13.006283333333334,think,think,frank,0.16,block2,Yes,NA,English,31,28
C,7940,low_prior,12,34,projective,Emily never has any money,13.006283333333334,reveal,reveal,emily,0.61,block2,Yes,NA,English,31,29
C,6592,low_prior,12,35,projective,Mia is a nun,13.006283333333334,say,say,mia,0.26,block2,Yes,NA,English,31,30
C,6648,high_prior,12,36,projective,Mary is taking a prenatal yoga class,13.006283333333334,demonstrate,demonstrate,mary,1,block2,Yes,NA,English,31,31
C,37305,low_prior,12,37,projective,Grace hates her sister,13.006283333333334,see,see,grace,0.98,block2,Yes,NA,English,31,32
MC,12654,NA,12,38,projective,Muffins are sold at the bakery,13.006283333333334,MC,MC,muffins,0,block2,Yes,NA,English,31,33
MC,9112,NA,12,39,projective,Garages are used to store cars and other things,13.006283333333334,MC,MC,garage,0.03,block2,Yes,NA,English,31,34
C,5528,high_prior,12,40,projective,Danny loves cake,13.006283333333334,establish,establish,danny,0.81,block2,Yes,NA,English,31,35
C,4295,low_prior,12,41,projective,Charley lives in Korea,13.006283333333334,discover,discover,charley,1,block2,Yes,NA,English,31,36
C,5144,high_prior,12,42,projective,Tony really likes to party with his friends,13.006283333333334,know,know,tony,0.98,block2,Yes,NA,English,31,37
MC,5640,NA,12,43,projective,Many children like ice cream,13.006283333333334,MC,MC,kids,0.02,block2,Yes,NA,English,31,38
MC,4240,NA,12,44,projective,Ballet is a type of dance,13.006283333333334,MC,MC,ballet,0,block2,Yes,NA,English,31,39
C,13648,high_prior,12,45,projective,Jayden's car is in the shop,13.006283333333334,be_right,be_right,jayden,0.29,block2,Yes,NA,English,31,40
C,36910,high_prior,12,46,projective,Josh is a 5-year old boy,13.006283333333334,confess,confess,josh,0.99,block2,Yes,NA,English,31,41
MC,5232,NA,12,47,projective,Hats are worn on the head,13.006283333333334,MC,MC,hat,0,block2,Yes,NA,English,31,42
C,6064,high_prior,12,48,projective,Jackson is training for a marathon,13.006283333333334,prove,prove,jackson,0.67,block2,Yes,NA,English,31,43
C,5976,low_prior,12,49,projective,Zoe is 5 years old,13.006283333333334,hear,hear,zoe,1,block2,Yes,NA,English,31,44
C,23288,high_prior,12,50,projective,Owen lives in Chicago,13.006283333333334,inform,inform,owen,0.78,block2,Yes,NA,English,31,45
C,5343,high_prior,12,51,projective,Olivia works the third shift,13.006283333333334,suggest,suggest,olivia,0.24,block2,Yes,NA,English,31,46
C,27040,low_prior,12,52,projective,Julian is German,13.006283333333334,be_annoyed,be_annoyed,julian,1,block2,Yes,NA,English,31,47
C,4632,low_prior,12,53,projective,Jon lives 10 miles away from work,13.006283333333334,announce,announce,jon,0.98,block2,Yes,NA,English,31,48
C,17104,low_prior,12,54,projective,Josie doesn't have a passport,13.006283333333334,confirm,confirm,josie,0.26,block2,Yes,NA,English,31,49
C,9758,high_prior,12,55,projective,Isabella is from Argentina,13.006283333333334,pretend,pretend,isabella,0.15,block2,Yes,NA,English,31,50
MC,4121,NA,12,56,projective,Pizza is sold at the pizzeria,13.006283333333334,MC,MC,pizza,0,block2,Yes,NA,English,31,51
C,31079,low_prior,12,57,projective,Emma is in first grade,13.006283333333334,acknowledge,acknowledge,emma,0.8,block2,Yes,NA,English,31,52
C,23612,high_prior,13,5,ai,Mia is a college student,15.895916666666666,announce,announce,mia,0.95,block1,Yes,fun !,English,50,1
C,21915,high_prior,13,6,ai,Sophia is a hipster,15.895916666666666,prove,prove,sophia,0.14,block1,Yes,fun !,English,50,2
MC,16466,NA,13,7,ai,Many children like ice cream,15.895916666666666,MC,MC,kids,0.010000000000000009,block1,Yes,fun !,English,50,3
C,15209,high_prior,13,8,ai,Danny loves cake,15.895916666666666,reveal,reveal,danny,0.020000000000000018,block1,Yes,fun !,English,50,4
C,17229,low_prior,13,9,ai,Charley lives in Korea,15.895916666666666,discover,discover,charley,0.74,block1,Yes,fun !,English,50,5
MC,15127,NA,13,10,ai,Pizza is sold at the pizzeria,15.895916666666666,MC,MC,pizza,0.020000000000000018,block1,Yes,fun !,English,50,6
MC,10653,NA,13,11,ai,Muffins are sold at the bakery,15.895916666666666,MC,MC,muffins,0.020000000000000018,block1,Yes,fun !,English,50,7
C,14486,high_prior,13,12,ai,Emma is in law school,15.895916666666666,confess,confess,emma,0.030000000000000027,block1,Yes,fun !,English,50,8
C,16004,low_prior,13,13,ai,Jon lives 10 miles away from work,15.895916666666666,inform,inform,jon,0.13,block1,Yes,fun !,English,50,9
MC,14512,NA,13,14,ai,Ballet is a type of dance,15.895916666666666,MC,MC,ballet,0.030000000000000027,block1,Yes,fun !,English,50,10
MC,13530,NA,13,15,ai,Garages are used to store cars and other things,15.895916666666666,MC,MC,garage,0.020000000000000018,block1,Yes,fun !,English,50,11
C,16777,high_prior,13,16,ai,Jackson is training for a marathon,15.895916666666666,say,say,jackson,0.77,block1,Yes,fun !,English,50,12
C,15303,low_prior,13,17,ai,Olivia has two small children,15.895916666666666,be_annoyed,be_annoyed,olivia,0.81,block1,Yes,fun !,English,50,13
C,15472,high_prior,13,18,ai,Zoe is a math major,15.895916666666666,pretend,pretend,zoe,0.49,block1,Yes,fun !,English,50,14
C,12154,low_prior,13,19,ai,Julian is German,15.895916666666666,confirm,confirm,julian,0.010000000000000009,block1,Yes,fun !,English,50,15
C,88446,low_prior,13,20,ai,Frank is allergic to cats,15.895916666666666,acknowledge,acknowledge,frank,0.10999999999999999,block1,Yes,fun !,English,50,16
C,13927,low_prior,13,21,ai,Grace hates her sister,15.895916666666666,see,see,grace,0.10999999999999999,block1,Yes,fun !,English,50,17
C,12566,low_prior,13,22,ai,Josie doesn't have a passport,15.895916666666666,know,know,josie,0.20999999999999996,block1,Yes,fun !,English,50,18
C,14126,low_prior,13,23,ai,Mary is a middle school student,15.895916666666666,be_right,be_right,mary,0.08999999999999997,block1,Yes,fun !,English,50,19
C,12015,high_prior,13,24,ai,Owen lives in Chicago,15.895916666666666,establish,establish,owen,0.07999999999999996,block1,Yes,fun !,English,50,20
C,84037,low_prior,13,25,ai,Isabella is a vegetarian,15.895916666666666,think,think,isabella,0.37,block1,Yes,fun !,English,50,21
MC,10676,NA,13,26,ai,Hats are worn on the head,15.895916666666666,MC,MC,hat,0,block1,Yes,fun !,English,50,22
C,8926,high_prior,13,27,ai,Jayden's car is in the shop,15.895916666666666,admit,admit,jayden,0.08999999999999997,block1,Yes,fun !,English,50,23
C,13896,high_prior,13,28,ai,Josh is a 5-year old boy,15.895916666666666,suggest,suggest,josh,0,block1,Yes,fun !,English,50,24
C,13468,low_prior,13,29,ai,Emily never has any money,15.895916666666666,demonstrate,demonstrate,emily,0.14,block1,Yes,fun !,English,50,25
C,11788,high_prior,13,30,ai,Tony really likes to party with his friends,15.895916666666666,hear,hear,tony,0.020000000000000018,block1,Yes,fun !,English,50,26
MC,9229,NA,13,32,projective,Muffins are sold at the bakery,15.895916666666666,MC,MC,muffins,0.25,block2,Yes,fun !,English,50,27
C,12267,high_prior,13,33,projective,Sophia is a hipster,15.895916666666666,prove,prove,sophia,0.16,block2,Yes,fun !,English,50,28
C,8000,high_prior,13,34,projective,Owen lives in Chicago,15.895916666666666,establish,establish,owen,0.49,block2,Yes,fun !,English,50,29
MC,9363,NA,13,35,projective,Ballet is a type of dance,15.895916666666666,MC,MC,ballet,0.08,block2,Yes,fun !,English,50,30
C,8192,low_prior,13,36,projective,Jon lives 10 miles away from work,15.895916666666666,inform,inform,jon,0.03,block2,Yes,fun !,English,50,31
C,9701,low_prior,13,37,projective,Isabella is a vegetarian,15.895916666666666,think,think,isabella,0.1,block2,Yes,fun !,English,50,32
C,11303,high_prior,13,38,projective,Josh is a 5-year old boy,15.895916666666666,suggest,suggest,josh,0.81,block2,Yes,fun !,English,50,33
